Trial	Block	Target_pr	Target_side	Name	Key	RT	Message	Block_Type	Condition
1	 1	 0	 x	 LineStimuli//3.3/stimNo151r0c0v3.3.jpg	 l	 22.184	 GoodTrial	 3.3	 bl
2	 1	 0	 x	 LineStimuli//3.3/stimNo158r0c0v3.3.jpg	 r	 7.850	 GoodTrial	 3.3	 bl
3	 1	 0	 x	 LineStimuli//3.3/stimNo141r0c0v3.3.jpg	 r	 4.979	 GoodTrial	 3.3	 bl
4	 1	 1	 left	 LineStimuli//3.3/stimNo93r3c5v3.3.jpg	 r	 3.040	 GoodTrial	 3.3	 bl
5	 1	 1	 right	 LineStimuli//3.3/stimNo101r7c16v3.3.jpg	 l	 2.717	 GoodTrial	 3.3	 bl
6	 1	 0	 x	 LineStimuli//3.3/stimNo142r0c0v3.3.jpg	 r	 3.945	 GoodTrial	 3.3	 bl
7	 1	 0	 x	 LineStimuli//3.3/stimNo159r0c0v3.3.jpg	 r	 3.610	 GoodTrial	 3.3	 bl
8	 1	 0	 x	 LineStimuli//3.3/stimNo121r0c0v3.3.jpg	 r	 3.659	 GoodTrial	 3.3	 bl
9	 1	 0	 x	 LineStimuli//3.3/stimNo160r0c0v3.3.jpg	 r	 2.778	 GoodTrial	 3.3	 bl
10	 1	 0	 x	 LineStimuli//3.3/stimNo130r0c0v3.3.jpg	 r	 3.113	 GoodTrial	 3.3	 bl
11	 1	 1	 left	 LineStimuli//3.3/stimNo83r8c3v3.3.jpg	 r	 3.159	 GoodTrial	 3.3	 bl
12	 1	 1	 right	 LineStimuli//3.3/stimNo91r12c16v3.3.jpg	 l	 2.180	 GoodTrial	 3.3	 bl
13	 1	 1	 right	 LineStimuli//3.3/stimNo96r8c18v3.3.jpg	 l	 1.778	 GoodTrial	 3.3	 bl
14	 1	 1	 left	 LineStimuli//3.3/stimNo108r13c2v3.3.jpg	 l	 2.076	 GoodTrial	 3.3	 bl
15	 1	 1	 left	 LineStimuli//3.3/stimNo119r15c7v3.3.jpg	 l	 1.827	 GoodTrial	 3.3	 bl
16	 1	 1	 right	 LineStimuli//3.3/stimNo98r4c21v3.3.jpg	 l	 1.755	 GoodTrial	 3.3	 bl
17	 1	 0	 x	 LineStimuli//3.3/stimNo128r0c0v3.3.jpg	 r	 3.296	 GoodTrial	 3.3	 bl
18	 1	 1	 left	 LineStimuli//3.3/stimNo92r10c7v3.3.jpg	 l	 1.886	 GoodTrial	 3.3	 bl
19	 1	 0	 x	 LineStimuli//3.3/stimNo143r0c0v3.3.jpg	 r	 3.503	 GoodTrial	 3.3	 bl
20	 1	 0	 x	 LineStimuli//3.3/stimNo135r0c0v3.3.jpg	 r	 5.446	 GoodTrial	 3.3	 bl
21	 1	 1	 left	 LineStimuli//3.3/stimNo86r5c7v3.3.jpg	 l	 1.941	 GoodTrial	 3.3	 bl
22	 1	 1	 right	 LineStimuli//3.3/stimNo88r9c14v3.3.jpg	 l	 1.875	 GoodTrial	 3.3	 bl
23	 1	 1	 right	 LineStimuli//3.3/stimNo116r10c14v3.3.jpg	 l	 1.939	 GoodTrial	 3.3	 bl
24	 1	 1	 left	 LineStimuli//3.3/stimNo85r6c4v3.3.jpg	 l	 2.031	 GoodTrial	 3.3	 bl
25	 1	 1	 left	 LineStimuli//3.3/stimNo106r9c9v3.3.jpg	 l	 1.713	 GoodTrial	 3.3	 bl
26	 1	 0	 x	 LineStimuli//3.3/stimNo127r0c0v3.3.jpg	 r	 3.200	 GoodTrial	 3.3	 bl
27	 1	 1	 right	 LineStimuli//3.3/stimNo87r15c13v3.3.jpg	 l	 2.641	 GoodTrial	 3.3	 bl
28	 1	 0	 x	 LineStimuli//3.3/stimNo123r0c0v3.3.jpg	 r	 2.595	 GoodTrial	 3.3	 bl
29	 1	 0	 x	 LineStimuli//3.3/stimNo153r0c0v3.3.jpg	 r	 2.355	 GoodTrial	 3.3	 bl
30	 1	 1	 right	 LineStimuli//3.3/stimNo82r11c20v3.3.jpg	 l	 1.809	 GoodTrial	 3.3	 bl
31	 1	 0	 x	 LineStimuli//3.3/stimNo149r0c0v3.3.jpg	 r	 2.528	 GoodTrial	 3.3	 bl
32	 1	 0	 x	 LineStimuli//3.3/stimNo156r0c0v3.3.jpg	 r	 2.185	 GoodTrial	 3.3	 bl
33	 1	 1	 left	 LineStimuli//3.3/stimNo115r3c4v3.3.jpg	 r	 2.092	 GoodTrial	 3.3	 bl
34	 1	 1	 right	 LineStimuli//3.3/stimNo118r3c16v3.3.jpg	 l	 1.998	 GoodTrial	 3.3	 bl
35	 1	 1	 right	 LineStimuli//3.3/stimNo113r13c15v3.3.jpg	 l	 1.935	 GoodTrial	 3.3	 bl
36	 1	 0	 x	 LineStimuli//3.3/stimNo134r0c0v3.3.jpg	 r	 2.832	 GoodTrial	 3.3	 bl
37	 1	 1	 right	 LineStimuli//3.3/stimNo97r6c13v3.3.jpg	 l	 2.065	 GoodTrial	 3.3	 bl
38	 1	 1	 right	 LineStimuli//3.3/stimNo89r5c21v3.3.jpg	 l	 1.809	 GoodTrial	 3.3	 bl
39	 1	 0	 x	 LineStimuli//3.3/stimNo136r0c0v3.3.jpg	 r	 2.642	 GoodTrial	 3.3	 bl
40	 1	 1	 right	 LineStimuli//3.3/stimNo84r6c16v3.3.jpg	 l	 1.621	 GoodTrial	 3.3	 bl
41	 1	 1	 left	 LineStimuli//3.3/stimNo81r15c8v3.3.jpg	 l	 2.043	 GoodTrial	 3.3	 bl
42	 1	 1	 right	 LineStimuli//3.3/stimNo114r11c21v3.3.jpg	 l	 2.038	 GoodTrial	 3.3	 bl
43	 1	 0	 x	 LineStimuli//3.3/stimNo126r0c0v3.3.jpg	 r	 3.237	 GoodTrial	 3.3	 bl
44	 1	 0	 x	 LineStimuli//3.3/stimNo137r0c0v3.3.jpg	 r	 2.648	 GoodTrial	 3.3	 bl
45	 1	 0	 x	 LineStimuli//3.3/stimNo131r0c0v3.3.jpg	 r	 2.320	 GoodTrial	 3.3	 bl
46	 1	 1	 right	 LineStimuli//3.3/stimNo120r8c14v3.3.jpg	 l	 1.895	 GoodTrial	 3.3	 bl
47	 1	 1	 left	 LineStimuli//3.3/stimNo111r15c7v3.3.jpg	 l	 1.862	 GoodTrial	 3.3	 bl
48	 1	 1	 right	 LineStimuli//3.3/stimNo112r5c15v3.3.jpg	 l	 1.638	 GoodTrial	 3.3	 bl
49	 1	 0	 x	 LineStimuli//3.3/stimNo155r0c0v3.3.jpg	 r	 2.187	 GoodTrial	 3.3	 bl
50	 1	 0	 x	 LineStimuli//3.3/stimNo144r0c0v3.3.jpg	 r	 2.463	 GoodTrial	 3.3	 bl
1	 2	 1	 right	 LineStimuli//2.3/stimNo84r15c14v2.3.jpg	 l	 1.825	 GoodTrial	 2.3	 bl
2	 2	 1	 right	 LineStimuli//2.3/stimNo105r14c14v2.3.jpg	 l	 1.764	 GoodTrial	 2.3	 bl
3	 2	 0	 x	 LineStimuli//2.3/stimNo155r0c0v2.3.jpg	 r	 2.594	 GoodTrial	 2.3	 bl
4	 2	 0	 x	 LineStimuli//2.3/stimNo142r0c0v2.3.jpg	 r	 1.975	 GoodTrial	 2.3	 bl
5	 2	 0	 x	 LineStimuli//2.3/stimNo121r0c0v2.3.jpg	 r	 2.264	 GoodTrial	 2.3	 bl
6	 2	 0	 x	 LineStimuli//2.3/stimNo139r0c0v2.3.jpg	 r	 1.736	 GoodTrial	 2.3	 bl
7	 2	 1	 right	 LineStimuli//2.3/stimNo92r10c17v2.3.jpg	 l	 1.724	 GoodTrial	 2.3	 bl
8	 2	 0	 x	 LineStimuli//2.3/stimNo140r0c0v2.3.jpg	 r	 1.946	 GoodTrial	 2.3	 bl
9	 2	 0	 x	 LineStimuli//2.3/stimNo123r0c0v2.3.jpg	 r	 1.835	 GoodTrial	 2.3	 bl
10	 2	 1	 left	 LineStimuli//2.3/stimNo88r15c2v2.3.jpg	 l	 2.216	 GoodTrial	 2.3	 bl
11	 2	 0	 x	 LineStimuli//2.3/stimNo150r0c0v2.3.jpg	 r	 2.220	 GoodTrial	 2.3	 bl
12	 2	 0	 x	 LineStimuli//2.3/stimNo145r0c0v2.3.jpg	 r	 2.638	 GoodTrial	 2.3	 bl
13	 2	 0	 x	 LineStimuli//2.3/stimNo153r0c0v2.3.jpg	 r	 3.093	 GoodTrial	 2.3	 bl
14	 2	 1	 right	 LineStimuli//2.3/stimNo99r2c13v2.3.jpg	 l	 1.777	 GoodTrial	 2.3	 bl
15	 2	 1	 left	 LineStimuli//2.3/stimNo119r3c2v2.3.jpg	 r	 2.826	 GoodTrial	 2.3	 bl
16	 2	 0	 x	 LineStimuli//2.3/stimNo144r0c0v2.3.jpg	 r	 3.045	 GoodTrial	 2.3	 bl
17	 2	 1	 left	 LineStimuli//2.3/stimNo117r11c8v2.3.jpg	 l	 1.894	 GoodTrial	 2.3	 bl
18	 2	 1	 left	 LineStimuli//2.3/stimNo114r7c8v2.3.jpg	 l	 1.700	 GoodTrial	 2.3	 bl
19	 2	 1	 right	 LineStimuli//2.3/stimNo118r4c17v2.3.jpg	 l	 1.730	 GoodTrial	 2.3	 bl
20	 2	 0	 x	 LineStimuli//2.3/stimNo132r0c0v2.3.jpg	 r	 2.941	 GoodTrial	 2.3	 bl
21	 2	 1	 left	 LineStimuli//2.3/stimNo86r8c9v2.3.jpg	 l	 1.722	 GoodTrial	 2.3	 bl
22	 2	 0	 x	 LineStimuli//2.3/stimNo129r0c0v2.3.jpg	 r	 3.094	 GoodTrial	 2.3	 bl
23	 2	 1	 left	 LineStimuli//2.3/stimNo106r9c9v2.3.jpg	 l	 1.672	 GoodTrial	 2.3	 bl
24	 2	 1	 right	 LineStimuli//2.3/stimNo107r11c15v2.3.jpg	 l	 1.695	 GoodTrial	 2.3	 bl
25	 2	 1	 left	 LineStimuli//2.3/stimNo112r3c2v2.3.jpg	 r	 4.162	 GoodTrial	 2.3	 bl
26	 2	 1	 right	 LineStimuli//2.3/stimNo120r4c17v2.3.jpg	 l	 1.647	 GoodTrial	 2.3	 bl
27	 2	 1	 left	 LineStimuli//2.3/stimNo104r2c4v2.3.jpg	 l	 3.664	 GoodTrial	 2.3	 bl
28	 2	 0	 x	 LineStimuli//2.3/stimNo154r0c0v2.3.jpg	 r	 4.674	 GoodTrial	 2.3	 bl
29	 2	 1	 left	 LineStimuli//2.3/stimNo94r8c9v2.3.jpg	 l	 1.714	 GoodTrial	 2.3	 bl
30	 2	 0	 x	 LineStimuli//2.3/stimNo147r0c0v2.3.jpg	 r	 4.748	 GoodTrial	 2.3	 bl
31	 2	 0	 x	 LineStimuli//2.3/stimNo149r0c0v2.3.jpg	 x	 1.010	 GoodTrial	 2.3	 bl
32	 2	 0	 x	 LineStimuli//2.3/stimNo151r0c0v2.3.jpg	 r	 5.389	 GoodTrial	 2.3	 bl
33	 2	 0	 x	 LineStimuli//2.3/stimNo160r0c0v2.3.jpg	 r	 4.098	 GoodTrial	 2.3	 bl
34	 2	 0	 x	 LineStimuli//2.3/stimNo122r0c0v2.3.jpg	 r	 3.108	 GoodTrial	 2.3	 bl
35	 2	 1	 right	 LineStimuli//2.3/stimNo111r11c21v2.3.jpg	 l	 2.153	 GoodTrial	 2.3	 bl
36	 2	 0	 x	 LineStimuli//2.3/stimNo138r0c0v2.3.jpg	 r	 3.136	 GoodTrial	 2.3	 bl
37	 2	 1	 left	 LineStimuli//2.3/stimNo108r15c6v2.3.jpg	 l	 2.167	 GoodTrial	 2.3	 bl
38	 2	 1	 left	 LineStimuli//2.3/stimNo81r4c3v2.3.jpg	 l	 2.298	 GoodTrial	 2.3	 bl
39	 2	 1	 right	 LineStimuli//2.3/stimNo90r14c21v2.3.jpg	 r	 3.289	 GoodTrial	 2.3	 bl
40	 2	 1	 right	 LineStimuli//2.3/stimNo101r8c14v2.3.jpg	 l	 1.835	 GoodTrial	 2.3	 bl
41	 2	 0	 x	 LineStimuli//2.3/stimNo133r0c0v2.3.jpg	 r	 3.400	 GoodTrial	 2.3	 bl
42	 2	 0	 x	 LineStimuli//2.3/stimNo125r0c0v2.3.jpg	 r	 3.246	 GoodTrial	 2.3	 bl
43	 2	 0	 x	 LineStimuli//2.3/stimNo126r0c0v2.3.jpg	 r	 3.457	 GoodTrial	 2.3	 bl
44	 2	 1	 right	 LineStimuli//2.3/stimNo87r13c19v2.3.jpg	 l	 1.857	 GoodTrial	 2.3	 bl
45	 2	 0	 x	 LineStimuli//2.3/stimNo134r0c0v2.3.jpg	 r	 3.662	 GoodTrial	 2.3	 bl
46	 2	 1	 right	 LineStimuli//2.3/stimNo109r2c17v2.3.jpg	 l	 1.686	 GoodTrial	 2.3	 bl
47	 2	 1	 right	 LineStimuli//2.3/stimNo85r4c15v2.3.jpg	 l	 1.775	 GoodTrial	 2.3	 bl
48	 2	 0	 x	 LineStimuli//2.3/stimNo136r0c0v2.3.jpg	 r	 3.145	 GoodTrial	 2.3	 bl
49	 2	 1	 left	 LineStimuli//2.3/stimNo96r3c3v2.3.jpg	 r	 2.415	 GoodTrial	 2.3	 bl
50	 2	 1	 left	 LineStimuli//2.3/stimNo83r14c4v2.3.jpg	 l	 2.071	 GoodTrial	 2.3	 bl
1	 3	 0	 x	 LineStimuli//2.8/stimNo152r0c0v2.8.jpg	 x	 1.110	 GoodTrial	 2.8	 bl
2	 3	 0	 x	 LineStimuli//2.8/stimNo144r0c0v2.8.jpg	 r	 2.910	 GoodTrial	 2.8	 bl
3	 3	 1	 right	 LineStimuli//2.8/stimNo114r8c19v2.8.jpg	 l	 1.751	 GoodTrial	 2.8	 bl
4	 3	 1	 left	 LineStimuli//2.8/stimNo82r4c6v2.8.jpg	 l	 2.287	 GoodTrial	 2.8	 bl
5	 3	 0	 x	 LineStimuli//2.8/stimNo143r0c0v2.8.jpg	 r	 3.387	 GoodTrial	 2.8	 bl
6	 3	 1	 right	 LineStimuli//2.8/stimNo112r13c17v2.8.jpg	 l	 1.910	 GoodTrial	 2.8	 bl
7	 3	 1	 left	 LineStimuli//2.8/stimNo89r12c4v2.8.jpg	 l	 1.768	 GoodTrial	 2.8	 bl
8	 3	 1	 left	 LineStimuli//2.8/stimNo83r12c4v2.8.jpg	 l	 1.528	 GoodTrial	 2.8	 bl
9	 3	 0	 x	 LineStimuli//2.8/stimNo156r0c0v2.8.jpg	 r	 2.576	 GoodTrial	 2.8	 bl
10	 3	 0	 x	 LineStimuli//2.8/stimNo135r0c0v2.8.jpg	 r	 2.806	 GoodTrial	 2.8	 bl
11	 3	 0	 x	 LineStimuli//2.8/stimNo153r0c0v2.8.jpg	 r	 2.374	 GoodTrial	 2.8	 bl
12	 3	 0	 x	 LineStimuli//2.8/stimNo142r0c0v2.8.jpg	 r	 2.813	 GoodTrial	 2.8	 bl
13	 3	 1	 right	 LineStimuli//2.8/stimNo109r6c18v2.8.jpg	 l	 1.643	 GoodTrial	 2.8	 bl
14	 3	 0	 x	 LineStimuli//2.8/stimNo157r0c0v2.8.jpg	 r	 2.647	 GoodTrial	 2.8	 bl
15	 3	 1	 right	 LineStimuli//2.8/stimNo101r12c16v2.8.jpg	 l	 1.597	 GoodTrial	 2.8	 bl
16	 3	 1	 left	 LineStimuli//2.8/stimNo88r15c3v2.8.jpg	 l	 1.656	 GoodTrial	 2.8	 bl
17	 3	 1	 left	 LineStimuli//2.8/stimNo119r8c5v2.8.jpg	 l	 1.577	 GoodTrial	 2.8	 bl
18	 3	 1	 right	 LineStimuli//2.8/stimNo111r9c15v2.8.jpg	 l	 1.512	 GoodTrial	 2.8	 bl
19	 3	 1	 right	 LineStimuli//2.8/stimNo81r8c14v2.8.jpg	 l	 1.667	 GoodTrial	 2.8	 bl
20	 3	 0	 x	 LineStimuli//2.8/stimNo150r0c0v2.8.jpg	 r	 3.351	 GoodTrial	 2.8	 bl
21	 3	 0	 x	 LineStimuli//2.8/stimNo136r0c0v2.8.jpg	 r	 2.730	 GoodTrial	 2.8	 bl
22	 3	 0	 x	 LineStimuli//2.8/stimNo155r0c0v2.8.jpg	 r	 2.829	 GoodTrial	 2.8	 bl
23	 3	 1	 left	 LineStimuli//2.8/stimNo107r5c6v2.8.jpg	 l	 1.654	 GoodTrial	 2.8	 bl
24	 3	 0	 x	 LineStimuli//2.8/stimNo137r0c0v2.8.jpg	 r	 2.391	 GoodTrial	 2.8	 bl
25	 3	 0	 x	 LineStimuli//2.8/stimNo158r0c0v2.8.jpg	 r	 2.245	 GoodTrial	 2.8	 bl
26	 3	 0	 x	 LineStimuli//2.8/stimNo147r0c0v2.8.jpg	 r	 2.120	 GoodTrial	 2.8	 bl
27	 3	 0	 x	 LineStimuli//2.8/stimNo124r0c0v2.8.jpg	 r	 2.405	 GoodTrial	 2.8	 bl
28	 3	 0	 x	 LineStimuli//2.8/stimNo151r0c0v2.8.jpg	 r	 3.179	 GoodTrial	 2.8	 bl
29	 3	 1	 left	 LineStimuli//2.8/stimNo108r13c6v2.8.jpg	 l	 1.635	 GoodTrial	 2.8	 bl
30	 3	 1	 right	 LineStimuli//2.8/stimNo90r13c21v2.8.jpg	 l	 1.880	 GoodTrial	 2.8	 bl
31	 3	 0	 x	 LineStimuli//2.8/stimNo123r0c0v2.8.jpg	 r	 3.518	 GoodTrial	 2.8	 bl
32	 3	 0	 x	 LineStimuli//2.8/stimNo148r0c0v2.8.jpg	 r	 3.285	 GoodTrial	 2.8	 bl
33	 3	 1	 right	 LineStimuli//2.8/stimNo85r4c15v2.8.jpg	 l	 1.668	 GoodTrial	 2.8	 bl
34	 3	 0	 x	 LineStimuli//2.8/stimNo154r0c0v2.8.jpg	 r	 2.216	 GoodTrial	 2.8	 bl
35	 3	 0	 x	 LineStimuli//2.8/stimNo134r0c0v2.8.jpg	 r	 2.696	 GoodTrial	 2.8	 bl
36	 3	 1	 left	 LineStimuli//2.8/stimNo98r15c2v2.8.jpg	 l	 1.636	 GoodTrial	 2.8	 bl
37	 3	 1	 right	 LineStimuli//2.8/stimNo106r13c20v2.8.jpg	 l	 1.707	 GoodTrial	 2.8	 bl
38	 3	 1	 left	 LineStimuli//2.8/stimNo104r8c6v2.8.jpg	 l	 1.572	 GoodTrial	 2.8	 bl
39	 3	 1	 left	 LineStimuli//2.8/stimNo97r11c4v2.8.jpg	 l	 1.690	 GoodTrial	 2.8	 bl
40	 3	 1	 right	 LineStimuli//2.8/stimNo110r7c14v2.8.jpg	 l	 1.554	 GoodTrial	 2.8	 bl
41	 3	 0	 x	 LineStimuli//2.8/stimNo146r0c0v2.8.jpg	 r	 2.281	 GoodTrial	 2.8	 bl
42	 3	 0	 x	 LineStimuli//2.8/stimNo129r0c0v2.8.jpg	 r	 2.233	 GoodTrial	 2.8	 bl
43	 3	 1	 right	 LineStimuli//2.8/stimNo92r14c21v2.8.jpg	 l	 1.689	 GoodTrial	 2.8	 bl
44	 3	 1	 left	 LineStimuli//2.8/stimNo113r9c5v2.8.jpg	 l	 1.564	 GoodTrial	 2.8	 bl
45	 3	 0	 x	 LineStimuli//2.8/stimNo149r0c0v2.8.jpg	 r	 2.049	 GoodTrial	 2.8	 bl
46	 3	 1	 left	 LineStimuli//2.8/stimNo86r15c6v2.8.jpg	 l	 1.749	 GoodTrial	 2.8	 bl
47	 3	 0	 x	 LineStimuli//2.8/stimNo128r0c0v2.8.jpg	 r	 2.234	 GoodTrial	 2.8	 bl
48	 3	 1	 right	 LineStimuli//2.8/stimNo118r5c16v2.8.jpg	 l	 1.624	 GoodTrial	 2.8	 bl
49	 3	 0	 x	 LineStimuli//2.8/stimNo132r0c0v2.8.jpg	 r	 1.979	 GoodTrial	 2.8	 bl
50	 3	 1	 right	 LineStimuli//2.8/stimNo100r8c13v2.8.jpg	 l	 1.682	 GoodTrial	 2.8	 bl
1	 4	 0	 x	 LineStimuli//1.8/stimNo149r0c0v1.8.jpg	 r	 3.688	 GoodTrial	 1.8	 bl
2	 4	 1	 left	 LineStimuli//1.8/stimNo113r6c7v1.8.jpg	 r	 2.627	 GoodTrial	 1.8	 bl
3	 4	 0	 x	 LineStimuli//1.8/stimNo127r0c0v1.8.jpg	 r	 4.325	 GoodTrial	 1.8	 bl
4	 4	 1	 right	 LineStimuli//1.8/stimNo111r4c21v1.8.jpg	 r	 3.948	 GoodTrial	 1.8	 bl
5	 4	 1	 left	 LineStimuli//1.8/stimNo95r4c9v1.8.jpg	 r	 6.908	 GoodTrial	 1.8	 bl
6	 4	 0	 x	 LineStimuli//1.8/stimNo144r0c0v1.8.jpg	 r	 15.091	 GoodTrial	 1.8	 bl
7	 4	 1	 right	 LineStimuli//1.8/stimNo93r3c17v1.8.jpg	 r	 11.305	 GoodTrial	 1.8	 bl
8	 4	 1	 right	 LineStimuli//1.8/stimNo99r12c16v1.8.jpg	 l	 2.572	 GoodTrial	 1.8	 bl
9	 4	 0	 x	 LineStimuli//1.8/stimNo136r0c0v1.8.jpg	 r	 9.374	 GoodTrial	 1.8	 bl
10	 4	 1	 right	 LineStimuli//1.8/stimNo100r9c13v1.8.jpg	 l	 2.799	 GoodTrial	 1.8	 bl
11	 4	 1	 right	 LineStimuli//1.8/stimNo109r7c17v1.8.jpg	 l	 3.230	 GoodTrial	 1.8	 bl
12	 4	 1	 left	 LineStimuli//1.8/stimNo91r14c4v1.8.jpg	 l	 2.802	 GoodTrial	 1.8	 bl
13	 4	 1	 left	 LineStimuli//1.8/stimNo86r14c4v1.8.jpg	 l	 1.683	 GoodTrial	 1.8	 bl
14	 4	 1	 right	 LineStimuli//1.8/stimNo114r8c13v1.8.jpg	 l	 2.142	 GoodTrial	 1.8	 bl
15	 4	 1	 left	 LineStimuli//1.8/stimNo87r14c2v1.8.jpg	 r	 9.318	 GoodTrial	 1.8	 bl
16	 4	 1	 left	 LineStimuli//1.8/stimNo115r5c9v1.8.jpg	 l	 2.371	 GoodTrial	 1.8	 bl
17	 4	 1	 left	 LineStimuli//1.8/stimNo107r5c4v1.8.jpg	 l	 1.772	 GoodTrial	 1.8	 bl
18	 4	 0	 x	 LineStimuli//1.8/stimNo141r0c0v1.8.jpg	 r	 10.583	 GoodTrial	 1.8	 bl
19	 4	 0	 x	 LineStimuli//1.8/stimNo123r0c0v1.8.jpg	 r	 7.467	 GoodTrial	 1.8	 bl
20	 4	 0	 x	 LineStimuli//1.8/stimNo145r0c0v1.8.jpg	 r	 5.492	 GoodTrial	 1.8	 bl
21	 4	 0	 x	 LineStimuli//1.8/stimNo134r0c0v1.8.jpg	 r	 3.961	 GoodTrial	 1.8	 bl
22	 4	 1	 right	 LineStimuli//1.8/stimNo117r10c16v1.8.jpg	 l	 3.590	 GoodTrial	 1.8	 bl
23	 4	 1	 left	 LineStimuli//1.8/stimNo85r13c2v1.8.jpg	 l	 2.310	 GoodTrial	 1.8	 bl
24	 4	 1	 right	 LineStimuli//1.8/stimNo90r15c13v1.8.jpg	 l	 3.535	 GoodTrial	 1.8	 bl
25	 4	 1	 left	 LineStimuli//1.8/stimNo110r4c7v1.8.jpg	 l	 2.756	 GoodTrial	 1.8	 bl
26	 4	 0	 x	 LineStimuli//1.8/stimNo138r0c0v1.8.jpg	 r	 7.506	 GoodTrial	 1.8	 bl
27	 4	 0	 x	 LineStimuli//1.8/stimNo139r0c0v1.8.jpg	 r	 6.978	 GoodTrial	 1.8	 bl
28	 4	 0	 x	 LineStimuli//1.8/stimNo135r0c0v1.8.jpg	 r	 5.387	 GoodTrial	 1.8	 bl
29	 4	 0	 x	 LineStimuli//1.8/stimNo129r0c0v1.8.jpg	 r	 4.445	 GoodTrial	 1.8	 bl
30	 4	 1	 right	 LineStimuli//1.8/stimNo118r11c15v1.8.jpg	 l	 3.179	 GoodTrial	 1.8	 bl
31	 4	 1	 left	 LineStimuli//1.8/stimNo103r15c10v1.8.jpg	 l	 1.909	 GoodTrial	 1.8	 bl
32	 4	 0	 x	 LineStimuli//1.8/stimNo124r0c0v1.8.jpg	 r	 5.256	 GoodTrial	 1.8	 bl
33	 4	 0	 x	 LineStimuli//1.8/stimNo159r0c0v1.8.jpg	 r	 5.143	 GoodTrial	 1.8	 bl
34	 4	 0	 x	 LineStimuli//1.8/stimNo137r0c0v1.8.jpg	 r	 5.623	 GoodTrial	 1.8	 bl
35	 4	 0	 x	 LineStimuli//1.8/stimNo157r0c0v1.8.jpg	 r	 5.420	 GoodTrial	 1.8	 bl
36	 4	 1	 left	 LineStimuli//1.8/stimNo98r15c5v1.8.jpg	 l	 2.145	 GoodTrial	 1.8	 bl
37	 4	 0	 x	 LineStimuli//1.8/stimNo150r0c0v1.8.jpg	 r	 5.722	 GoodTrial	 1.8	 bl
38	 4	 0	 x	 LineStimuli//1.8/stimNo122r0c0v1.8.jpg	 r	 6.630	 GoodTrial	 1.8	 bl
39	 4	 1	 left	 LineStimuli//1.8/stimNo94r13c8v1.8.jpg	 r	 4.760	 GoodTrial	 1.8	 bl
40	 4	 1	 left	 LineStimuli//1.8/stimNo116r4c7v1.8.jpg	 l	 7.507	 GoodTrial	 1.8	 bl
41	 4	 1	 right	 LineStimuli//1.8/stimNo119r3c21v1.8.jpg	 l	 2.340	 GoodTrial	 1.8	 bl
42	 4	 0	 x	 LineStimuli//1.8/stimNo132r0c0v1.8.jpg	 r	 8.623	 GoodTrial	 1.8	 bl
43	 4	 0	 x	 LineStimuli//1.8/stimNo154r0c0v1.8.jpg	 r	 7.170	 GoodTrial	 1.8	 bl
44	 4	 0	 x	 LineStimuli//1.8/stimNo156r0c0v1.8.jpg	 r	 5.819	 GoodTrial	 1.8	 bl
45	 4	 1	 left	 LineStimuli//1.8/stimNo96r13c2v1.8.jpg	 l	 2.525	 GoodTrial	 1.8	 bl
46	 4	 1	 right	 LineStimuli//1.8/stimNo104r3c21v1.8.jpg	 l	 2.257	 GoodTrial	 1.8	 bl
47	 4	 1	 left	 LineStimuli//1.8/stimNo89r11c6v1.8.jpg	 l	 1.853	 GoodTrial	 1.8	 bl
48	 4	 1	 left	 LineStimuli//1.8/stimNo106r13c9v1.8.jpg	 l	 4.385	 GoodTrial	 1.8	 bl
49	 4	 0	 x	 LineStimuli//1.8/stimNo147r0c0v1.8.jpg	 r	 8.040	 GoodTrial	 1.8	 bl
50	 4	 1	 right	 LineStimuli//1.8/stimNo83r6c13v1.8.jpg	 l	 1.961	 GoodTrial	 1.8	 bl
1	 5	 1	 right	 LineStimuli//3.8/stimNo94r6c17v3.8.jpg	 l	 1.783	 GoodTrial	 3.8	 bl
2	 5	 0	 x	 LineStimuli//3.8/stimNo136r0c0v3.8.jpg	 r	 2.728	 GoodTrial	 3.8	 bl
3	 5	 0	 x	 LineStimuli//3.8/stimNo144r0c0v3.8.jpg	 r	 2.664	 GoodTrial	 3.8	 bl
4	 5	 1	 left	 LineStimuli//3.8/stimNo100r13c6v3.8.jpg	 l	 1.761	 GoodTrial	 3.8	 bl
5	 5	 0	 x	 LineStimuli//3.8/stimNo131r0c0v3.8.jpg	 r	 2.556	 GoodTrial	 3.8	 bl
6	 5	 0	 x	 LineStimuli//3.8/stimNo156r0c0v3.8.jpg	 r	 3.036	 GoodTrial	 3.8	 bl
7	 5	 1	 right	 LineStimuli//3.8/stimNo114r10c14v3.8.jpg	 l	 1.651	 GoodTrial	 3.8	 bl
8	 5	 1	 right	 LineStimuli//3.8/stimNo88r10c17v3.8.jpg	 l	 1.540	 GoodTrial	 3.8	 bl
9	 5	 0	 x	 LineStimuli//3.8/stimNo150r0c0v3.8.jpg	 r	 2.315	 GoodTrial	 3.8	 bl
10	 5	 0	 x	 LineStimuli//3.8/stimNo145r0c0v3.8.jpg	 r	 2.242	 GoodTrial	 3.8	 bl
11	 5	 0	 x	 LineStimuli//3.8/stimNo153r0c0v3.8.jpg	 r	 1.872	 GoodTrial	 3.8	 bl
12	 5	 0	 x	 LineStimuli//3.8/stimNo123r0c0v3.8.jpg	 r	 1.596	 GoodTrial	 3.8	 bl
13	 5	 1	 left	 LineStimuli//3.8/stimNo93r8c2v3.8.jpg	 l	 1.633	 GoodTrial	 3.8	 bl
14	 5	 0	 x	 LineStimuli//3.8/stimNo143r0c0v3.8.jpg	 r	 1.853	 GoodTrial	 3.8	 bl
15	 5	 0	 x	 LineStimuli//3.8/stimNo138r0c0v3.8.jpg	 r	 1.566	 GoodTrial	 3.8	 bl
16	 5	 0	 x	 LineStimuli//3.8/stimNo155r0c0v3.8.jpg	 r	 2.469	 GoodTrial	 3.8	 bl
17	 5	 1	 right	 LineStimuli//3.8/stimNo107r9c18v3.8.jpg	 l	 1.605	 GoodTrial	 3.8	 bl
18	 5	 0	 x	 LineStimuli//3.8/stimNo132r0c0v3.8.jpg	 r	 2.081	 GoodTrial	 3.8	 bl
19	 5	 1	 right	 LineStimuli//3.8/stimNo117r6c17v3.8.jpg	 l	 1.521	 GoodTrial	 3.8	 bl
20	 5	 1	 right	 LineStimuli//3.8/stimNo84r9c19v3.8.jpg	 l	 1.578	 GoodTrial	 3.8	 bl
21	 5	 1	 right	 LineStimuli//3.8/stimNo91r10c16v3.8.jpg	 l	 1.595	 GoodTrial	 3.8	 bl
22	 5	 1	 left	 LineStimuli//3.8/stimNo119r9c8v3.8.jpg	 l	 1.554	 GoodTrial	 3.8	 bl
23	 5	 0	 x	 LineStimuli//3.8/stimNo140r0c0v3.8.jpg	 r	 1.704	 GoodTrial	 3.8	 bl
24	 5	 0	 x	 LineStimuli//3.8/stimNo135r0c0v3.8.jpg	 r	 1.672	 GoodTrial	 3.8	 bl
25	 5	 1	 left	 LineStimuli//3.8/stimNo89r10c7v3.8.jpg	 l	 1.704	 GoodTrial	 3.8	 bl
26	 5	 0	 x	 LineStimuli//3.8/stimNo160r0c0v3.8.jpg	 r	 2.029	 GoodTrial	 3.8	 bl
27	 5	 1	 right	 LineStimuli//3.8/stimNo102r10c17v3.8.jpg	 l	 1.563	 GoodTrial	 3.8	 bl
28	 5	 0	 x	 LineStimuli//3.8/stimNo125r0c0v3.8.jpg	 r	 2.307	 GoodTrial	 3.8	 bl
29	 5	 1	 left	 LineStimuli//3.8/stimNo104r12c8v3.8.jpg	 l	 1.554	 GoodTrial	 3.8	 bl
30	 5	 0	 x	 LineStimuli//3.8/stimNo134r0c0v3.8.jpg	 r	 2.013	 GoodTrial	 3.8	 bl
31	 5	 1	 right	 LineStimuli//3.8/stimNo92r6c21v3.8.jpg	 l	 1.560	 GoodTrial	 3.8	 bl
32	 5	 0	 x	 LineStimuli//3.8/stimNo130r0c0v3.8.jpg	 r	 2.303	 GoodTrial	 3.8	 bl
33	 5	 0	 x	 LineStimuli//3.8/stimNo122r0c0v3.8.jpg	 r	 2.333	 GoodTrial	 3.8	 bl
34	 5	 1	 left	 LineStimuli//3.8/stimNo103r11c7v3.8.jpg	 l	 1.584	 GoodTrial	 3.8	 bl
35	 5	 1	 left	 LineStimuli//3.8/stimNo105r2c6v3.8.jpg	 l	 1.885	 GoodTrial	 3.8	 bl
36	 5	 0	 x	 LineStimuli//3.8/stimNo159r0c0v3.8.jpg	 r	 2.558	 GoodTrial	 3.8	 bl
37	 5	 0	 x	 LineStimuli//3.8/stimNo149r0c0v3.8.jpg	 r	 2.218	 GoodTrial	 3.8	 bl
38	 5	 0	 x	 LineStimuli//3.8/stimNo148r0c0v3.8.jpg	 r	 2.542	 GoodTrial	 3.8	 bl
39	 5	 1	 right	 LineStimuli//3.8/stimNo111r15c20v3.8.jpg	 l	 1.707	 GoodTrial	 3.8	 bl
40	 5	 0	 x	 LineStimuli//3.8/stimNo121r0c0v3.8.jpg	 r	 2.091	 GoodTrial	 3.8	 bl
41	 5	 1	 left	 LineStimuli//3.8/stimNo110r7c9v3.8.jpg	 l	 1.638	 GoodTrial	 3.8	 bl
42	 5	 0	 x	 LineStimuli//3.8/stimNo152r0c0v3.8.jpg	 r	 2.335	 GoodTrial	 3.8	 bl
43	 5	 1	 left	 LineStimuli//3.8/stimNo83r9c9v3.8.jpg	 l	 1.601	 GoodTrial	 3.8	 bl
44	 5	 0	 x	 LineStimuli//3.8/stimNo133r0c0v3.8.jpg	 r	 2.983	 GoodTrial	 3.8	 bl
45	 5	 0	 x	 LineStimuli//3.8/stimNo158r0c0v3.8.jpg	 r	 2.657	 GoodTrial	 3.8	 bl
46	 5	 0	 x	 LineStimuli//3.8/stimNo127r0c0v3.8.jpg	 r	 2.511	 GoodTrial	 3.8	 bl
47	 5	 1	 left	 LineStimuli//3.8/stimNo109r11c8v3.8.jpg	 l	 1.662	 GoodTrial	 3.8	 bl
48	 5	 1	 left	 LineStimuli//3.8/stimNo98r2c9v3.8.jpg	 l	 1.641	 GoodTrial	 3.8	 bl
49	 5	 0	 x	 LineStimuli//3.8/stimNo129r0c0v3.8.jpg	 r	 2.351	 GoodTrial	 3.8	 bl
50	 5	 0	 x	 LineStimuli//3.8/stimNo146r0c0v3.8.jpg	 r	 2.464	 GoodTrial	 3.8	 bl
1	 6	 1	 left	 LineStimuli//1.5/stimNo88r6c7v1.5.jpg	 r	 7.832	 GoodTrial	 1.5	 bl
2	 6	 0	 x	 LineStimuli//1.5/stimNo154r0c0v1.5.jpg	 r	 5.248	 GoodTrial	 1.5	 bl
3	 6	 0	 x	 LineStimuli//1.5/stimNo155r0c0v1.5.jpg	 r	 6.460	 GoodTrial	 1.5	 bl
4	 6	 1	 left	 LineStimuli//1.5/stimNo112r9c5v1.5.jpg	 l	 5.440	 GoodTrial	 1.5	 bl
5	 6	 1	 right	 LineStimuli//1.5/stimNo118r9c20v1.5.jpg	 r	 10.821	 GoodTrial	 1.5	 bl
6	 6	 1	 left	 LineStimuli//1.5/stimNo94r10c6v1.5.jpg	 r	 13.361	 GoodTrial	 1.5	 bl
7	 6	 1	 left	 LineStimuli//1.5/stimNo85r2c5v1.5.jpg	 r	 18.712	 GoodTrial	 1.5	 bl
8	 6	 0	 x	 LineStimuli//1.5/stimNo144r0c0v1.5.jpg	 r	 30.954	 GoodTrial	 1.5	 bl
9	 6	 0	 x	 LineStimuli//1.5/stimNo140r0c0v1.5.jpg	 r	 14.148	 GoodTrial	 1.5	 bl
10	 6	 1	 left	 LineStimuli//1.5/stimNo96r15c4v1.5.jpg	 r	 13.539	 GoodTrial	 1.5	 bl
11	 6	 0	 x	 LineStimuli//1.5/stimNo156r0c0v1.5.jpg	 l	 27.670	 GoodTrial	 1.5	 bl
12	 6	 1	 left	 LineStimuli//1.5/stimNo109r8c6v1.5.jpg	 l	 2.674	 GoodTrial	 1.5	 bl
13	 6	 1	 right	 LineStimuli//1.5/stimNo107r2c19v1.5.jpg	 l	 13.961	 GoodTrial	 1.5	 bl
14	 6	 0	 x	 LineStimuli//1.5/stimNo131r0c0v1.5.jpg	 r	 23.127	 GoodTrial	 1.5	 bl
15	 6	 0	 x	 LineStimuli//1.5/stimNo147r0c0v1.5.jpg	 r	 17.591	 GoodTrial	 1.5	 bl
16	 6	 0	 x	 LineStimuli//1.5/stimNo138r0c0v1.5.jpg	 r	 15.920	 GoodTrial	 1.5	 bl
17	 6	 0	 x	 LineStimuli//1.5/stimNo160r0c0v1.5.jpg	 l	 15.204	 GoodTrial	 1.5	 bl
18	 6	 1	 right	 LineStimuli//1.5/stimNo105r3c18v1.5.jpg	 l	 3.237	 GoodTrial	 1.5	 bl
19	 6	 0	 x	 LineStimuli//1.5/stimNo153r0c0v1.5.jpg	 r	 13.245	 GoodTrial	 1.5	 bl
20	 6	 1	 right	 LineStimuli//1.5/stimNo81r6c17v1.5.jpg	 r	 15.540	 GoodTrial	 1.5	 bl
21	 6	 0	 x	 LineStimuli//1.5/stimNo124r0c0v1.5.jpg	 r	 19.800	 GoodTrial	 1.5	 bl
22	 6	 0	 x	 LineStimuli//1.5/stimNo134r0c0v1.5.jpg	 r	 22.618	 GoodTrial	 1.5	 bl
23	 6	 1	 left	 LineStimuli//1.5/stimNo83r12c7v1.5.jpg	 l	 2.900	 GoodTrial	 1.5	 bl
24	 6	 0	 x	 LineStimuli//1.5/stimNo141r0c0v1.5.jpg	 r	 22.548	 GoodTrial	 1.5	 bl
25	 6	 0	 x	 LineStimuli//1.5/stimNo121r0c0v1.5.jpg	 r	 9.542	 GoodTrial	 1.5	 bl
26	 6	 0	 x	 LineStimuli//1.5/stimNo151r0c0v1.5.jpg	 r	 9.260	 GoodTrial	 1.5	 bl
27	 6	 0	 x	 LineStimuli//1.5/stimNo139r0c0v1.5.jpg	 r	 13.969	 GoodTrial	 1.5	 bl
28	 6	 1	 right	 LineStimuli//1.5/stimNo103r13c17v1.5.jpg	 r	 8.191	 GoodTrial	 1.5	 bl
29	 6	 0	 x	 LineStimuli//1.5/stimNo152r0c0v1.5.jpg	 r	 29.353	 GoodTrial	 1.5	 bl
30	 6	 0	 x	 LineStimuli//1.5/stimNo142r0c0v1.5.jpg	 r	 11.214	 GoodTrial	 1.5	 bl
31	 6	 1	 right	 LineStimuli//1.5/stimNo90r3c15v1.5.jpg	 l	 2.303	 GoodTrial	 1.5	 bl
32	 6	 1	 right	 LineStimuli//1.5/stimNo115r14c18v1.5.jpg	 l	 9.083	 GoodTrial	 1.5	 bl
33	 6	 0	 x	 LineStimuli//1.5/stimNo150r0c0v1.5.jpg	 r	 10.007	 GoodTrial	 1.5	 bl
34	 6	 0	 x	 LineStimuli//1.5/stimNo127r0c0v1.5.jpg	 r	 10.130	 GoodTrial	 1.5	 bl
35	 6	 0	 x	 LineStimuli//1.5/stimNo158r0c0v1.5.jpg	 r	 12.579	 GoodTrial	 1.5	 bl
36	 6	 1	 right	 LineStimuli//1.5/stimNo95r6c14v1.5.jpg	 r	 8.897	 GoodTrial	 1.5	 bl
37	 6	 0	 x	 LineStimuli//1.5/stimNo149r0c0v1.5.jpg	 r	 20.558	 GoodTrial	 1.5	 bl
38	 6	 1	 left	 LineStimuli//1.5/stimNo116r7c7v1.5.jpg	 r	 14.632	 GoodTrial	 1.5	 bl
39	 6	 0	 x	 LineStimuli//1.5/stimNo146r0c0v1.5.jpg	 r	 31.580	 GoodTrial	 1.5	 bl
40	 6	 0	 x	 LineStimuli//1.5/stimNo122r0c0v1.5.jpg	 r	 13.324	 GoodTrial	 1.5	 bl
41	 6	 1	 right	 LineStimuli//1.5/stimNo82r11c15v1.5.jpg	 r	 19.781	 GoodTrial	 1.5	 bl
42	 6	 0	 x	 LineStimuli//1.5/stimNo159r0c0v1.5.jpg	 r	 21.974	 GoodTrial	 1.5	 bl
43	 6	 1	 right	 LineStimuli//1.5/stimNo92r6c18v1.5.jpg	 l	 9.603	 GoodTrial	 1.5	 bl
44	 6	 0	 x	 LineStimuli//1.5/stimNo157r0c0v1.5.jpg	 r	 23.904	 GoodTrial	 1.5	 bl
45	 6	 0	 x	 LineStimuli//1.5/stimNo145r0c0v1.5.jpg	 r	 14.158	 GoodTrial	 1.5	 bl
46	 6	 0	 x	 LineStimuli//1.5/stimNo132r0c0v1.5.jpg	 r	 21.680	 GoodTrial	 1.5	 bl
47	 6	 1	 right	 LineStimuli//1.5/stimNo98r8c21v1.5.jpg	 r	 16.197	 GoodTrial	 1.5	 bl
48	 6	 1	 right	 LineStimuli//1.5/stimNo111r7c17v1.5.jpg	 l	 3.584	 GoodTrial	 1.5	 bl
49	 6	 1	 right	 LineStimuli//1.5/stimNo93r14c18v1.5.jpg	 r	 21.914	 GoodTrial	 1.5	 bl
50	 6	 0	 x	 LineStimuli//1.5/stimNo143r0c0v1.5.jpg	 r	 15.438	 GoodTrial	 1.5	 bl
1	 7	 0	 x	 LineStimuli//4.3/stimNo156r0c0v4.3.jpg	 r	 2.542	 GoodTrial	 4.3	 bl
2	 7	 0	 x	 LineStimuli//4.3/stimNo123r0c0v4.3.jpg	 r	 1.861	 GoodTrial	 4.3	 bl
3	 7	 1	 right	 LineStimuli//4.3/stimNo117r10c21v4.3.jpg	 l	 1.733	 GoodTrial	 4.3	 bl
4	 7	 0	 x	 LineStimuli//4.3/stimNo141r0c0v4.3.jpg	 r	 1.957	 GoodTrial	 4.3	 bl
5	 7	 1	 left	 LineStimuli//4.3/stimNo90r10c4v4.3.jpg	 l	 1.715	 GoodTrial	 4.3	 bl
6	 7	 0	 x	 LineStimuli//4.3/stimNo137r0c0v4.3.jpg	 r	 1.807	 GoodTrial	 4.3	 bl
7	 7	 0	 x	 LineStimuli//4.3/stimNo147r0c0v4.3.jpg	 r	 1.848	 GoodTrial	 4.3	 bl
8	 7	 1	 right	 LineStimuli//4.3/stimNo96r4c19v4.3.jpg	 l	 1.602	 GoodTrial	 4.3	 bl
9	 7	 1	 left	 LineStimuli//4.3/stimNo111r10c9v4.3.jpg	 l	 1.651	 GoodTrial	 4.3	 bl
10	 7	 0	 x	 LineStimuli//4.3/stimNo153r0c0v4.3.jpg	 r	 1.870	 GoodTrial	 4.3	 bl
11	 7	 1	 right	 LineStimuli//4.3/stimNo120r8c18v4.3.jpg	 l	 1.595	 GoodTrial	 4.3	 bl
12	 7	 0	 x	 LineStimuli//4.3/stimNo148r0c0v4.3.jpg	 r	 1.593	 GoodTrial	 4.3	 bl
13	 7	 0	 x	 LineStimuli//4.3/stimNo142r0c0v4.3.jpg	 r	 1.567	 GoodTrial	 4.3	 bl
14	 7	 1	 right	 LineStimuli//4.3/stimNo116r5c13v4.3.jpg	 l	 1.623	 GoodTrial	 4.3	 bl
15	 7	 0	 x	 LineStimuli//4.3/stimNo135r0c0v4.3.jpg	 r	 1.643	 GoodTrial	 4.3	 bl
16	 7	 0	 x	 LineStimuli//4.3/stimNo149r0c0v4.3.jpg	 r	 1.452	 GoodTrial	 4.3	 bl
17	 7	 1	 right	 LineStimuli//4.3/stimNo89r3c17v4.3.jpg	 l	 1.609	 GoodTrial	 4.3	 bl
18	 7	 1	 right	 LineStimuli//4.3/stimNo99r14c18v4.3.jpg	 l	 1.780	 GoodTrial	 4.3	 bl
19	 7	 0	 x	 LineStimuli//4.3/stimNo160r0c0v4.3.jpg	 r	 1.701	 GoodTrial	 4.3	 bl
20	 7	 1	 left	 LineStimuli//4.3/stimNo110r6c7v4.3.jpg	 l	 1.521	 GoodTrial	 4.3	 bl
21	 7	 0	 x	 LineStimuli//4.3/stimNo121r0c0v4.3.jpg	 r	 1.736	 GoodTrial	 4.3	 bl
22	 7	 1	 right	 LineStimuli//4.3/stimNo109r15c15v4.3.jpg	 l	 1.634	 GoodTrial	 4.3	 bl
23	 7	 1	 right	 LineStimuli//4.3/stimNo115r10c18v4.3.jpg	 l	 1.509	 GoodTrial	 4.3	 bl
24	 7	 1	 right	 LineStimuli//4.3/stimNo97r6c21v4.3.jpg	 l	 1.512	 GoodTrial	 4.3	 bl
25	 7	 0	 x	 LineStimuli//4.3/stimNo157r0c0v4.3.jpg	 r	 2.194	 GoodTrial	 4.3	 bl
26	 7	 0	 x	 LineStimuli//4.3/stimNo125r0c0v4.3.jpg	 r	 1.485	 GoodTrial	 4.3	 bl
27	 7	 0	 x	 LineStimuli//4.3/stimNo155r0c0v4.3.jpg	 r	 1.433	 GoodTrial	 4.3	 bl
28	 7	 1	 left	 LineStimuli//4.3/stimNo95r11c9v4.3.jpg	 l	 1.525	 GoodTrial	 4.3	 bl
29	 7	 1	 left	 LineStimuli//4.3/stimNo85r3c5v4.3.jpg	 l	 1.525	 GoodTrial	 4.3	 bl
30	 7	 1	 right	 LineStimuli//4.3/stimNo92r2c20v4.3.jpg	 l	 1.501	 GoodTrial	 4.3	 bl
31	 7	 1	 left	 LineStimuli//4.3/stimNo106r8c2v4.3.jpg	 l	 1.501	 GoodTrial	 4.3	 bl
32	 7	 1	 left	 LineStimuli//4.3/stimNo107r2c8v4.3.jpg	 l	 1.452	 GoodTrial	 4.3	 bl
33	 7	 1	 right	 LineStimuli//4.3/stimNo84r15c20v4.3.jpg	 l	 1.527	 GoodTrial	 4.3	 bl
34	 7	 1	 left	 LineStimuli//4.3/stimNo105r14c6v4.3.jpg	 l	 1.484	 GoodTrial	 4.3	 bl
35	 7	 0	 x	 LineStimuli//4.3/stimNo152r0c0v4.3.jpg	 r	 1.978	 GoodTrial	 4.3	 bl
36	 7	 0	 x	 LineStimuli//4.3/stimNo159r0c0v4.3.jpg	 r	 1.542	 GoodTrial	 4.3	 bl
37	 7	 0	 x	 LineStimuli//4.3/stimNo136r0c0v4.3.jpg	 r	 1.786	 GoodTrial	 4.3	 bl
38	 7	 1	 right	 LineStimuli//4.3/stimNo102r10c19v4.3.jpg	 l	 1.578	 GoodTrial	 4.3	 bl
39	 7	 1	 left	 LineStimuli//4.3/stimNo103r10c4v4.3.jpg	 l	 1.605	 GoodTrial	 4.3	 bl
40	 7	 0	 x	 LineStimuli//4.3/stimNo143r0c0v4.3.jpg	 r	 1.677	 GoodTrial	 4.3	 bl
41	 7	 0	 x	 LineStimuli//4.3/stimNo146r0c0v4.3.jpg	 r	 1.639	 GoodTrial	 4.3	 bl
42	 7	 1	 right	 LineStimuli//4.3/stimNo91r9c13v4.3.jpg	 l	 1.637	 GoodTrial	 4.3	 bl
43	 7	 1	 right	 LineStimuli//4.3/stimNo119r12c17v4.3.jpg	 l	 1.459	 GoodTrial	 4.3	 bl
44	 7	 0	 x	 LineStimuli//4.3/stimNo144r0c0v4.3.jpg	 r	 1.727	 GoodTrial	 4.3	 bl
45	 7	 1	 left	 LineStimuli//4.3/stimNo108r5c8v4.3.jpg	 l	 1.628	 GoodTrial	 4.3	 bl
46	 7	 1	 left	 LineStimuli//4.3/stimNo113r11c7v4.3.jpg	 l	 1.486	 GoodTrial	 4.3	 bl
47	 7	 0	 x	 LineStimuli//4.3/stimNo122r0c0v4.3.jpg	 r	 1.643	 GoodTrial	 4.3	 bl
48	 7	 1	 left	 LineStimuli//4.3/stimNo100r8c3v4.3.jpg	 l	 1.527	 GoodTrial	 4.3	 bl
49	 7	 0	 x	 LineStimuli//4.3/stimNo130r0c0v4.3.jpg	 r	 2.180	 GoodTrial	 4.3	 bl
50	 7	 0	 x	 LineStimuli//4.3/stimNo127r0c0v4.3.jpg	 r	 1.644	 GoodTrial	 4.3	 bl
