Trial	Block	Target_pr	Target_side	Name	Key	RT	Message	Block_Type	Condition
1	 1	 1	 left	 LineStimuli//3.3/stimNo95r15c8v3.3.jpg	 l	 2.701	 GoodTrial	 allStim	 si
2	 1	 1	 right	 LineStimuli//3.8/stimNo88r10c17v3.8.jpg	 l	 1.640	 GoodTrial	 allStim	 si
3	 1	 0	 x	 LineStimuli//4.3/stimNo141r0c0v4.3.jpg	 r	 1.856	 GoodTrial	 allStim	 si
4	 1	 1	 left	 LineStimuli//4.3/stimNo111r10c9v4.3.jpg	 l	 1.642	 GoodTrial	 allStim	 si
5	 1	 1	 right	 LineStimuli//3.8/stimNo90r8c17v3.8.jpg	 l	 1.600	 GoodTrial	 allStim	 si
6	 1	 0	 x	 LineStimuli//3.3/stimNo157r0c0v3.3.jpg	 r	 2.349	 GoodTrial	 allStim	 si
7	 1	 1	 right	 LineStimuli//2.8/stimNo118r5c16v2.8.jpg	 l	 1.677	 GoodTrial	 allStim	 si
8	 1	 0	 x	 LineStimuli//2.3/stimNo121r0c0v2.3.jpg	 r	 2.384	 GoodTrial	 allStim	 si
9	 1	 0	 x	 LineStimuli//1.8/stimNo149r0c0v1.8.jpg	 r	 2.674	 GoodTrial	 allStim	 si
10	 1	 1	 left	 LineStimuli//1.5/stimNo116r7c7v1.5.jpg	 r	 2.991	 GoodTrial	 allStim	 si
11	 1	 0	 x	 LineStimuli//1.5/stimNo155r0c0v1.5.jpg	 r	 3.563	 GoodTrial	 allStim	 si
12	 1	 1	 right	 LineStimuli//1.8/stimNo112r6c15v1.8.jpg	 l	 1.905	 GoodTrial	 allStim	 si
13	 1	 1	 left	 LineStimuli//2.3/stimNo88r15c2v2.3.jpg	 l	 1.808	 GoodTrial	 allStim	 si
14	 1	 1	 left	 LineStimuli//2.8/stimNo86r15c6v2.8.jpg	 l	 1.586	 GoodTrial	 allStim	 si
15	 1	 0	 x	 LineStimuli//3.3/stimNo156r0c0v3.3.jpg	 r	 3.262	 GoodTrial	 allStim	 si
16	 1	 1	 left	 LineStimuli//3.8/stimNo93r8c2v3.8.jpg	 l	 1.529	 GoodTrial	 allStim	 si
17	 1	 1	 right	 LineStimuli//4.3/stimNo84r15c20v4.3.jpg	 l	 1.728	 GoodTrial	 allStim	 si
18	 1	 1	 left	 LineStimuli//4.3/stimNo86r7c3v4.3.jpg	 l	 1.943	 GoodTrial	 allStim	 si
19	 1	 0	 x	 LineStimuli//3.8/stimNo134r0c0v3.8.jpg	 r	 2.617	 GoodTrial	 allStim	 si
20	 1	 0	 x	 LineStimuli//3.3/stimNo140r0c0v3.3.jpg	 r	 3.887	 GoodTrial	 allStim	 si
21	 1	 1	 right	 LineStimuli//2.8/stimNo95r9c18v2.8.jpg	 l	 1.605	 GoodTrial	 allStim	 si
22	 1	 1	 left	 LineStimuli//2.3/stimNo96r3c3v2.3.jpg	 l	 2.042	 GoodTrial	 allStim	 si
23	 1	 0	 x	 LineStimuli//1.8/stimNo128r0c0v1.8.jpg	 r	 3.798	 GoodTrial	 allStim	 si
24	 1	 1	 right	 LineStimuli//1.5/stimNo101r5c20v1.5.jpg	 r	 4.455	 GoodTrial	 allStim	 si
25	 1	 0	 x	 LineStimuli//1.5/stimNo137r0c0v1.5.jpg	 r	 6.637	 GoodTrial	 allStim	 si
26	 1	 1	 left	 LineStimuli//1.8/stimNo94r13c8v1.8.jpg	 l	 4.060	 GoodTrial	 allStim	 si
27	 1	 1	 left	 LineStimuli//2.3/stimNo106r9c9v2.3.jpg	 r	 2.160	 GoodTrial	 allStim	 si
28	 1	 1	 right	 LineStimuli//2.8/stimNo111r9c15v2.8.jpg	 l	 1.634	 GoodTrial	 allStim	 si
29	 1	 0	 x	 LineStimuli//3.3/stimNo129r0c0v3.3.jpg	 r	 2.337	 GoodTrial	 allStim	 si
30	 1	 1	 right	 LineStimuli//3.8/stimNo107r9c18v3.8.jpg	 l	 1.573	 GoodTrial	 allStim	 si
31	 1	 0	 x	 LineStimuli//4.3/stimNo129r0c0v4.3.jpg	 r	 2.144	 GoodTrial	 allStim	 si
32	 1	 0	 x	 LineStimuli//4.3/stimNo130r0c0v4.3.jpg	 r	 2.040	 GoodTrial	 allStim	 si
33	 1	 1	 right	 LineStimuli//3.8/stimNo107r9c18v3.8.jpg	 l	 1.670	 GoodTrial	 allStim	 si
34	 1	 1	 left	 LineStimuli//3.3/stimNo94r14c9v3.3.jpg	 l	 1.960	 GoodTrial	 allStim	 si
35	 1	 0	 x	 LineStimuli//2.8/stimNo151r0c0v2.8.jpg	 r	 2.320	 GoodTrial	 allStim	 si
36	 1	 0	 x	 LineStimuli//2.3/stimNo131r0c0v2.3.jpg	 r	 2.650	 GoodTrial	 allStim	 si
37	 1	 1	 right	 LineStimuli//1.8/stimNo119r3c21v1.8.jpg	 r	 2.409	 GoodTrial	 allStim	 si
38	 1	 1	 right	 LineStimuli//1.5/stimNo118r9c20v1.5.jpg	 r	 5.225	 GoodTrial	 allStim	 si
39	 1	 0	 x	 LineStimuli//1.5/stimNo145r0c0v1.5.jpg	 r	 5.948	 GoodTrial	 allStim	 si
40	 1	 0	 x	 LineStimuli//1.8/stimNo135r0c0v1.8.jpg	 r	 5.452	 GoodTrial	 allStim	 si
41	 1	 1	 right	 LineStimuli//2.3/stimNo98r12c21v2.3.jpg	 l	 1.780	 GoodTrial	 allStim	 si
42	 1	 0	 x	 LineStimuli//2.8/stimNo125r0c0v2.8.jpg	 r	 3.475	 GoodTrial	 allStim	 si
43	 1	 0	 x	 LineStimuli//3.3/stimNo134r0c0v3.3.jpg	 r	 2.778	 GoodTrial	 allStim	 si
44	 1	 0	 x	 LineStimuli//3.8/stimNo139r0c0v3.8.jpg	 r	 2.559	 GoodTrial	 allStim	 si
45	 1	 1	 left	 LineStimuli//4.3/stimNo110r6c7v4.3.jpg	 l	 1.545	 GoodTrial	 allStim	 si
46	 1	 1	 left	 LineStimuli//4.3/stimNo111r10c9v4.3.jpg	 r	 1.796	 GoodTrial	 allStim	 si
47	 1	 1	 left	 LineStimuli//3.8/stimNo100r13c6v3.8.jpg	 l	 1.689	 GoodTrial	 allStim	 si
48	 1	 0	 x	 LineStimuli//3.3/stimNo149r0c0v3.3.jpg	 r	 1.960	 GoodTrial	 allStim	 si
49	 1	 0	 x	 LineStimuli//2.8/stimNo131r0c0v2.8.jpg	 r	 2.457	 GoodTrial	 allStim	 si
50	 1	 0	 x	 LineStimuli//2.3/stimNo160r0c0v2.3.jpg	 r	 2.648	 GoodTrial	 allStim	 si
1	 2	 1	 left	 LineStimuli//3.3/stimNo95r15c8v3.3.jpg	 l	 1.984	 GoodTrial	 allStim	 si
2	 2	 1	 right	 LineStimuli//3.8/stimNo112r12c16v3.8.jpg	 l	 1.640	 GoodTrial	 allStim	 si
3	 2	 0	 x	 LineStimuli//4.3/stimNo155r0c0v4.3.jpg	 r	 3.312	 GoodTrial	 allStim	 si
4	 2	 0	 x	 LineStimuli//4.3/stimNo121r0c0v4.3.jpg	 r	 2.120	 GoodTrial	 allStim	 si
5	 2	 1	 right	 LineStimuli//3.8/stimNo107r9c18v3.8.jpg	 l	 1.599	 GoodTrial	 allStim	 si
6	 2	 1	 left	 LineStimuli//3.3/stimNo108r13c2v3.3.jpg	 l	 1.564	 GoodTrial	 allStim	 si
7	 2	 1	 left	 LineStimuli//2.8/stimNo108r13c6v2.8.jpg	 l	 1.562	 GoodTrial	 allStim	 si
8	 2	 1	 left	 LineStimuli//2.3/stimNo88r15c2v2.3.jpg	 l	 1.534	 GoodTrial	 allStim	 si
9	 2	 0	 x	 LineStimuli//1.8/stimNo142r0c0v1.8.jpg	 r	 2.607	 GoodTrial	 allStim	 si
10	 2	 0	 x	 LineStimuli//1.5/stimNo148r0c0v1.5.jpg	 r	 4.651	 GoodTrial	 allStim	 si
11	 2	 1	 right	 LineStimuli//1.5/stimNo82r11c15v1.5.jpg	 r	 4.734	 GoodTrial	 allStim	 si
12	 2	 0	 x	 LineStimuli//1.8/stimNo144r0c0v1.8.jpg	 r	 5.015	 GoodTrial	 allStim	 si
13	 2	 0	 x	 LineStimuli//2.3/stimNo129r0c0v2.3.jpg	 r	 3.700	 GoodTrial	 allStim	 si
14	 2	 0	 x	 LineStimuli//2.8/stimNo159r0c0v2.8.jpg	 r	 4.376	 GoodTrial	 allStim	 si
15	 2	 0	 x	 LineStimuli//3.3/stimNo156r0c0v3.3.jpg	 r	 2.537	 GoodTrial	 allStim	 si
16	 2	 1	 left	 LineStimuli//3.8/stimNo120r5c3v3.8.jpg	 l	 1.603	 GoodTrial	 allStim	 si
17	 2	 0	 x	 LineStimuli//4.3/stimNo141r0c0v4.3.jpg	 r	 1.961	 GoodTrial	 allStim	 si
18	 2	 0	 x	 LineStimuli//4.3/stimNo146r0c0v4.3.jpg	 r	 2.174	 GoodTrial	 allStim	 si
19	 2	 0	 x	 LineStimuli//3.8/stimNo145r0c0v3.8.jpg	 r	 2.864	 GoodTrial	 allStim	 si
20	 2	 0	 x	 LineStimuli//3.3/stimNo150r0c0v3.3.jpg	 r	 3.071	 GoodTrial	 allStim	 si
21	 2	 1	 right	 LineStimuli//2.8/stimNo115r9c14v2.8.jpg	 l	 1.721	 GoodTrial	 allStim	 si
22	 2	 0	 x	 LineStimuli//2.3/stimNo144r0c0v2.3.jpg	 r	 2.833	 GoodTrial	 allStim	 si
23	 2	 0	 x	 LineStimuli//1.8/stimNo146r0c0v1.8.jpg	 r	 7.138	 GoodTrial	 allStim	 si
24	 2	 1	 right	 LineStimuli//1.5/stimNo92r6c18v1.5.jpg	 r	 2.079	 GoodTrial	 allStim	 si
25	 2	 0	 x	 LineStimuli//1.5/stimNo144r0c0v1.5.jpg	 r	 4.481	 GoodTrial	 allStim	 si
26	 2	 1	 left	 LineStimuli//1.8/stimNo88r15c9v1.8.jpg	 r	 4.803	 GoodTrial	 allStim	 si
27	 2	 0	 x	 LineStimuli//2.3/stimNo154r0c0v2.3.jpg	 r	 4.193	 GoodTrial	 allStim	 si
28	 2	 0	 x	 LineStimuli//2.8/stimNo156r0c0v2.8.jpg	 r	 2.574	 GoodTrial	 allStim	 si
29	 2	 0	 x	 LineStimuli//3.3/stimNo136r0c0v3.3.jpg	 r	 2.871	 GoodTrial	 allStim	 si
30	 2	 0	 x	 LineStimuli//3.8/stimNo144r0c0v3.8.jpg	 r	 3.129	 GoodTrial	 allStim	 si
31	 2	 1	 left	 LineStimuli//4.3/stimNo110r6c7v4.3.jpg	 l	 1.675	 GoodTrial	 allStim	 si
32	 2	 1	 right	 LineStimuli//4.3/stimNo97r6c21v4.3.jpg	 l	 1.943	 GoodTrial	 allStim	 si
33	 2	 1	 right	 LineStimuli//3.8/stimNo107r9c18v3.8.jpg	 l	 1.640	 GoodTrial	 allStim	 si
34	 2	 0	 x	 LineStimuli//3.3/stimNo125r0c0v3.3.jpg	 r	 2.104	 GoodTrial	 allStim	 si
35	 2	 1	 right	 LineStimuli//2.8/stimNo85r4c15v2.8.jpg	 l	 2.263	 GoodTrial	 allStim	 si
36	 2	 0	 x	 LineStimuli//2.3/stimNo127r0c0v2.3.jpg	 r	 4.564	 GoodTrial	 allStim	 si
37	 2	 0	 x	 LineStimuli//1.8/stimNo157r0c0v1.8.jpg	 r	 3.755	 GoodTrial	 allStim	 si
38	 2	 0	 x	 LineStimuli//1.5/stimNo141r0c0v1.5.jpg	 r	 5.250	 GoodTrial	 allStim	 si
39	 2	 0	 x	 LineStimuli//1.5/stimNo160r0c0v1.5.jpg	 r	 7.487	 GoodTrial	 allStim	 si
40	 2	 1	 right	 LineStimuli//1.8/stimNo111r4c21v1.8.jpg	 r	 7.503	 GoodTrial	 allStim	 si
41	 2	 0	 x	 LineStimuli//2.3/stimNo147r0c0v2.3.jpg	 r	 2.125	 GoodTrial	 allStim	 si
42	 2	 1	 right	 LineStimuli//2.8/stimNo120r8c20v2.8.jpg	 l	 1.845	 GoodTrial	 allStim	 si
43	 2	 1	 left	 LineStimuli//3.3/stimNo81r15c8v3.3.jpg	 l	 2.288	 GoodTrial	 allStim	 si
44	 2	 0	 x	 LineStimuli//3.8/stimNo155r0c0v3.8.jpg	 r	 1.971	 GoodTrial	 allStim	 si
45	 2	 1	 right	 LineStimuli//4.3/stimNo89r3c17v4.3.jpg	 l	 1.597	 GoodTrial	 allStim	 si
46	 2	 0	 x	 LineStimuli//4.3/stimNo154r0c0v4.3.jpg	 r	 1.961	 GoodTrial	 allStim	 si
47	 2	 1	 right	 LineStimuli//3.8/stimNo107r9c18v3.8.jpg	 l	 1.545	 GoodTrial	 allStim	 si
48	 2	 1	 right	 LineStimuli//3.3/stimNo105r7c20v3.3.jpg	 l	 1.758	 GoodTrial	 allStim	 si
49	 2	 0	 x	 LineStimuli//2.8/stimNo138r0c0v2.8.jpg	 r	 3.512	 GoodTrial	 allStim	 si
50	 2	 1	 right	 LineStimuli//2.3/stimNo103r11c21v2.3.jpg	 l	 2.008	 GoodTrial	 allStim	 si
1	 3	 0	 x	 LineStimuli//3.3/stimNo158r0c0v3.3.jpg	 r	 2.544	 GoodTrial	 allStim	 si
2	 3	 1	 left	 LineStimuli//3.8/stimNo83r9c9v3.8.jpg	 l	 1.994	 GoodTrial	 allStim	 si
3	 3	 0	 x	 LineStimuli//4.3/stimNo144r0c0v4.3.jpg	 r	 2.998	 GoodTrial	 allStim	 si
4	 3	 1	 left	 LineStimuli//4.3/stimNo83r4c2v4.3.jpg	 l	 1.876	 GoodTrial	 allStim	 si
5	 3	 1	 left	 LineStimuli//3.8/stimNo105r2c6v3.8.jpg	 l	 1.696	 GoodTrial	 allStim	 si
6	 3	 0	 x	 LineStimuli//3.3/stimNo137r0c0v3.3.jpg	 r	 3.142	 GoodTrial	 allStim	 si
7	 3	 0	 x	 LineStimuli//2.8/stimNo158r0c0v2.8.jpg	 r	 2.339	 GoodTrial	 allStim	 si
8	 3	 0	 x	 LineStimuli//2.3/stimNo149r0c0v2.3.jpg	 r	 2.696	 GoodTrial	 allStim	 si
9	 3	 0	 x	 LineStimuli//1.8/stimNo126r0c0v1.8.jpg	 r	 1.963	 GoodTrial	 allStim	 si
10	 3	 0	 x	 LineStimuli//1.5/stimNo159r0c0v1.5.jpg	 r	 7.327	 GoodTrial	 allStim	 si
11	 3	 0	 x	 LineStimuli//1.5/stimNo157r0c0v1.5.jpg	 r	 7.008	 GoodTrial	 allStim	 si
12	 3	 0	 x	 LineStimuli//1.8/stimNo136r0c0v1.8.jpg	 r	 6.198	 GoodTrial	 allStim	 si
13	 3	 0	 x	 LineStimuli//2.3/stimNo125r0c0v2.3.jpg	 r	 4.024	 GoodTrial	 allStim	 si
14	 3	 1	 right	 LineStimuli//2.8/stimNo85r4c15v2.8.jpg	 l	 3.546	 GoodTrial	 allStim	 si
15	 3	 0	 x	 LineStimuli//3.3/stimNo133r0c0v3.3.jpg	 r	 2.665	 GoodTrial	 allStim	 si
16	 3	 1	 right	 LineStimuli//3.8/stimNo101r12c17v3.8.jpg	 l	 1.825	 GoodTrial	 allStim	 si
17	 3	 0	 x	 LineStimuli//4.3/stimNo157r0c0v4.3.jpg	 r	 2.171	 GoodTrial	 allStim	 si
18	 3	 1	 left	 LineStimuli//4.3/stimNo95r11c9v4.3.jpg	 l	 1.686	 GoodTrial	 allStim	 si
19	 3	 1	 left	 LineStimuli//3.8/stimNo120r5c3v3.8.jpg	 l	 1.784	 GoodTrial	 allStim	 si
20	 3	 0	 x	 LineStimuli//3.3/stimNo140r0c0v3.3.jpg	 r	 3.514	 GoodTrial	 allStim	 si
21	 3	 0	 x	 LineStimuli//2.8/stimNo134r0c0v2.8.jpg	 r	 2.441	 GoodTrial	 allStim	 si
22	 3	 0	 x	 LineStimuli//2.3/stimNo134r0c0v2.3.jpg	 r	 5.168	 GoodTrial	 allStim	 si
23	 3	 1	 left	 LineStimuli//1.8/stimNo105r6c5v1.8.jpg	 l	 1.816	 GoodTrial	 allStim	 si
24	 3	 1	 left	 LineStimuli//1.5/stimNo116r7c7v1.5.jpg	 r	 5.988	 GoodTrial	 allStim	 si
25	 3	 0	 x	 LineStimuli//1.5/stimNo135r0c0v1.5.jpg	 r	 7.569	 GoodTrial	 allStim	 si
26	 3	 0	 x	 LineStimuli//1.8/stimNo133r0c0v1.8.jpg	 r	 3.647	 GoodTrial	 allStim	 si
27	 3	 1	 left	 LineStimuli//2.3/stimNo112r3c2v2.3.jpg	 l	 2.194	 GoodTrial	 allStim	 si
28	 3	 0	 x	 LineStimuli//2.8/stimNo138r0c0v2.8.jpg	 r	 4.629	 GoodTrial	 allStim	 si
29	 3	 0	 x	 LineStimuli//3.3/stimNo130r0c0v3.3.jpg	 r	 3.064	 GoodTrial	 allStim	 si
30	 3	 1	 right	 LineStimuli//3.8/stimNo101r12c17v3.8.jpg	 l	 1.753	 GoodTrial	 allStim	 si
31	 3	 0	 x	 LineStimuli//4.3/stimNo143r0c0v4.3.jpg	 r	 2.714	 GoodTrial	 allStim	 si
32	 3	 0	 x	 LineStimuli//4.3/stimNo143r0c0v4.3.jpg	 r	 4.160	 GoodTrial	 allStim	 si
33	 3	 1	 left	 LineStimuli//3.8/stimNo83r9c9v3.8.jpg	 l	 1.782	 GoodTrial	 allStim	 si
34	 3	 1	 right	 LineStimuli//3.3/stimNo91r12c16v3.3.jpg	 l	 1.616	 GoodTrial	 allStim	 si
35	 3	 0	 x	 LineStimuli//2.8/stimNo123r0c0v2.8.jpg	 r	 3.092	 GoodTrial	 allStim	 si
36	 3	 1	 right	 LineStimuli//2.3/stimNo98r12c21v2.3.jpg	 l	 1.848	 GoodTrial	 allStim	 si
37	 3	 0	 x	 LineStimuli//1.8/stimNo138r0c0v1.8.jpg	 r	 3.853	 GoodTrial	 allStim	 si
38	 3	 0	 x	 LineStimuli//1.5/stimNo127r0c0v1.5.jpg	 r	 2.514	 GoodTrial	 allStim	 si
39	 3	 0	 x	 LineStimuli//1.5/stimNo144r0c0v1.5.jpg	 r	 2.082	 GoodTrial	 allStim	 si
40	 3	 0	 x	 LineStimuli//1.8/stimNo160r0c0v1.8.jpg	 r	 1.875	 GoodTrial	 allStim	 si
41	 3	 0	 x	 LineStimuli//2.3/stimNo143r0c0v2.3.jpg	 r	 1.945	 GoodTrial	 allStim	 si
42	 3	 1	 left	 LineStimuli//2.8/stimNo84r3c9v2.8.jpg	 l	 1.649	 GoodTrial	 allStim	 si
43	 3	 0	 x	 LineStimuli//3.3/stimNo141r0c0v3.3.jpg	 r	 2.533	 GoodTrial	 allStim	 si
44	 3	 1	 right	 LineStimuli//3.8/stimNo102r10c17v3.8.jpg	 l	 1.701	 GoodTrial	 allStim	 si
45	 3	 1	 left	 LineStimuli//4.3/stimNo101r5c5v4.3.jpg	 l	 1.487	 GoodTrial	 allStim	 si
46	 3	 1	 right	 LineStimuli//4.3/stimNo118r11c13v4.3.jpg	 l	 1.584	 GoodTrial	 allStim	 si
47	 3	 0	 x	 LineStimuli//3.8/stimNo134r0c0v3.8.jpg	 r	 3.780	 GoodTrial	 allStim	 si
48	 3	 0	 x	 LineStimuli//3.3/stimNo127r0c0v3.3.jpg	 r	 2.601	 GoodTrial	 allStim	 si
49	 3	 0	 x	 LineStimuli//2.8/stimNo146r0c0v2.8.jpg	 r	 3.371	 GoodTrial	 allStim	 si
50	 3	 0	 x	 LineStimuli//2.3/stimNo130r0c0v2.3.jpg	 r	 4.887	 GoodTrial	 allStim	 si
1	 4	 1	 left	 LineStimuli//3.3/stimNo86r5c7v3.3.jpg	 r	 1.990	 GoodTrial	 allStim	 si
2	 4	 1	 right	 LineStimuli//3.8/stimNo92r6c21v3.8.jpg	 l	 1.817	 GoodTrial	 allStim	 si
3	 4	 1	 right	 LineStimuli//4.3/stimNo115r10c18v4.3.jpg	 l	 1.541	 GoodTrial	 allStim	 si
4	 4	 1	 right	 LineStimuli//4.3/stimNo84r15c20v4.3.jpg	 l	 1.789	 GoodTrial	 allStim	 si
5	 4	 0	 x	 LineStimuli//3.8/stimNo129r0c0v3.8.jpg	 r	 1.795	 GoodTrial	 allStim	 si
6	 4	 1	 left	 LineStimuli//3.3/stimNo92r10c7v3.3.jpg	 l	 1.756	 GoodTrial	 allStim	 si
7	 4	 1	 left	 LineStimuli//2.8/stimNo87r11c8v2.8.jpg	 l	 2.440	 GoodTrial	 allStim	 si
8	 4	 0	 x	 LineStimuli//2.3/stimNo136r0c0v2.3.jpg	 r	 6.513	 GoodTrial	 allStim	 si
9	 4	 0	 x	 LineStimuli//1.8/stimNo134r0c0v1.8.jpg	 r	 6.167	 GoodTrial	 allStim	 si
10	 4	 0	 x	 LineStimuli//1.5/stimNo125r0c0v1.5.jpg	 r	 4.569	 GoodTrial	 allStim	 si
11	 4	 1	 left	 LineStimuli//1.5/stimNo114r4c4v1.5.jpg	 r	 5.488	 GoodTrial	 allStim	 si
12	 4	 1	 right	 LineStimuli//1.8/stimNo101r4c13v1.8.jpg	 l	 3.359	 GoodTrial	 allStim	 si
13	 4	 1	 left	 LineStimuli//2.3/stimNo94r8c9v2.3.jpg	 l	 2.289	 GoodTrial	 allStim	 si
14	 4	 0	 x	 LineStimuli//2.8/stimNo126r0c0v2.8.jpg	 r	 2.208	 GoodTrial	 allStim	 si
15	 4	 1	 right	 LineStimuli//3.3/stimNo88r9c14v3.3.jpg	 l	 1.875	 GoodTrial	 allStim	 si
16	 4	 0	 x	 LineStimuli//3.8/stimNo156r0c0v3.8.jpg	 r	 2.015	 GoodTrial	 allStim	 si
17	 4	 0	 x	 LineStimuli//4.3/stimNo122r0c0v4.3.jpg	 r	 1.907	 GoodTrial	 allStim	 si
18	 4	 1	 left	 LineStimuli//4.3/stimNo113r11c7v4.3.jpg	 l	 1.727	 GoodTrial	 allStim	 si
19	 4	 1	 right	 LineStimuli//3.8/stimNo112r12c16v3.8.jpg	 l	 1.681	 GoodTrial	 allStim	 si
20	 4	 1	 left	 LineStimuli//3.3/stimNo90r2c9v3.3.jpg	 l	 2.000	 GoodTrial	 allStim	 si
21	 4	 0	 x	 LineStimuli//2.8/stimNo126r0c0v2.8.jpg	 r	 2.760	 GoodTrial	 allStim	 si
22	 4	 0	 x	 LineStimuli//2.3/stimNo122r0c0v2.3.jpg	 r	 2.030	 GoodTrial	 allStim	 si
23	 4	 1	 right	 LineStimuli//1.8/stimNo100r9c13v1.8.jpg	 l	 2.279	 GoodTrial	 allStim	 si
24	 4	 0	 x	 LineStimuli//1.5/stimNo147r0c0v1.5.jpg	 r	 4.335	 GoodTrial	 allStim	 si
25	 4	 0	 x	 LineStimuli//1.5/stimNo160r0c0v1.5.jpg	 r	 4.736	 GoodTrial	 allStim	 si
26	 4	 0	 x	 LineStimuli//1.8/stimNo137r0c0v1.8.jpg	 r	 4.208	 GoodTrial	 allStim	 si
27	 4	 0	 x	 LineStimuli//2.3/stimNo137r0c0v2.3.jpg	 r	 2.001	 GoodTrial	 allStim	 si
28	 4	 1	 right	 LineStimuli//2.8/stimNo100r8c13v2.8.jpg	 l	 1.991	 GoodTrial	 allStim	 si
29	 4	 1	 left	 LineStimuli//3.3/stimNo86r5c7v3.3.jpg	 l	 1.660	 GoodTrial	 allStim	 si
30	 4	 0	 x	 LineStimuli//3.8/stimNo154r0c0v3.8.jpg	 r	 2.112	 GoodTrial	 allStim	 si
31	 4	 1	 left	 LineStimuli//4.3/stimNo85r3c5v4.3.jpg	 l	 1.606	 GoodTrial	 allStim	 si
32	 4	 1	 right	 LineStimuli//4.3/stimNo118r11c13v4.3.jpg	 l	 2.001	 GoodTrial	 allStim	 si
33	 4	 1	 right	 LineStimuli//3.8/stimNo82r9c21v3.8.jpg	 l	 1.875	 GoodTrial	 allStim	 si
34	 4	 0	 x	 LineStimuli//3.3/stimNo122r0c0v3.3.jpg	 r	 2.329	 GoodTrial	 allStim	 si
35	 4	 1	 left	 LineStimuli//2.8/stimNo94r13c7v2.8.jpg	 l	 1.672	 GoodTrial	 allStim	 si
36	 4	 1	 left	 LineStimuli//2.3/stimNo108r15c6v2.3.jpg	 l	 2.134	 GoodTrial	 allStim	 si
37	 4	 0	 x	 LineStimuli//1.8/stimNo133r0c0v1.8.jpg	 r	 2.650	 GoodTrial	 allStim	 si
38	 4	 0	 x	 LineStimuli//1.5/stimNo135r0c0v1.5.jpg	 r	 4.682	 GoodTrial	 allStim	 si
39	 4	 1	 right	 LineStimuli//1.5/stimNo119r6c19v1.5.jpg	 x	 3.904	 GoodTrial	 allStim	 si
40	 4	 1	 right	 LineStimuli//1.8/stimNo112r6c15v1.8.jpg	 r	 3.673	 GoodTrial	 allStim	 si
41	 4	 0	 x	 LineStimuli//2.3/stimNo131r0c0v2.3.jpg	 r	 4.157	 GoodTrial	 allStim	 si
42	 4	 1	 right	 LineStimuli//2.8/stimNo120r8c20v2.8.jpg	 l	 2.017	 GoodTrial	 allStim	 si
43	 4	 0	 x	 LineStimuli//3.3/stimNo145r0c0v3.3.jpg	 r	 1.938	 GoodTrial	 allStim	 si
44	 4	 0	 x	 LineStimuli//3.8/stimNo160r0c0v3.8.jpg	 r	 1.867	 GoodTrial	 allStim	 si
45	 4	 0	 x	 LineStimuli//4.3/stimNo158r0c0v4.3.jpg	 r	 1.846	 GoodTrial	 allStim	 si
46	 4	 1	 right	 LineStimuli//4.3/stimNo109r15c15v4.3.jpg	 l	 2.064	 GoodTrial	 allStim	 si
47	 4	 0	 x	 LineStimuli//3.8/stimNo144r0c0v3.8.jpg	 r	 4.696	 GoodTrial	 allStim	 si
48	 4	 0	 x	 LineStimuli//3.3/stimNo142r0c0v3.3.jpg	 r	 4.625	 GoodTrial	 allStim	 si
49	 4	 1	 right	 LineStimuli//2.8/stimNo100r8c13v2.8.jpg	 l	 1.988	 GoodTrial	 allStim	 si
50	 4	 0	 x	 LineStimuli//2.3/stimNo135r0c0v2.3.jpg	 r	 4.178	 GoodTrial	 allStim	 si
1	 5	 0	 x	 LineStimuli//3.3/stimNo150r0c0v3.3.jpg	 r	 2.103	 GoodTrial	 allStim	 si
2	 5	 0	 x	 LineStimuli//3.8/stimNo146r0c0v3.8.jpg	 r	 1.789	 GoodTrial	 allStim	 si
3	 5	 0	 x	 LineStimuli//4.3/stimNo142r0c0v4.3.jpg	 r	 1.719	 GoodTrial	 allStim	 si
4	 5	 1	 left	 LineStimuli//4.3/stimNo101r5c5v4.3.jpg	 l	 1.595	 GoodTrial	 allStim	 si
5	 5	 0	 x	 LineStimuli//3.8/stimNo146r0c0v3.8.jpg	 r	 1.919	 GoodTrial	 allStim	 si
6	 5	 1	 right	 LineStimuli//3.3/stimNo99r6c17v3.3.jpg	 l	 2.338	 GoodTrial	 allStim	 si
7	 5	 0	 x	 LineStimuli//2.8/stimNo150r0c0v2.8.jpg	 r	 5.716	 GoodTrial	 allStim	 si
8	 5	 0	 x	 LineStimuli//2.3/stimNo137r0c0v2.3.jpg	 r	 1.945	 GoodTrial	 allStim	 si
9	 5	 0	 x	 LineStimuli//1.8/stimNo159r0c0v1.8.jpg	 r	 2.144	 GoodTrial	 allStim	 si
10	 5	 1	 left	 LineStimuli//1.5/stimNo85r2c5v1.5.jpg	 r	 1.948	 GoodTrial	 allStim	 si
11	 5	 1	 right	 LineStimuli//1.5/stimNo98r8c21v1.5.jpg	 r	 6.422	 GoodTrial	 allStim	 si
12	 5	 0	 x	 LineStimuli//1.8/stimNo159r0c0v1.8.jpg	 r	 6.407	 GoodTrial	 allStim	 si
13	 5	 1	 right	 LineStimuli//2.3/stimNo98r12c21v2.3.jpg	 r	 7.545	 GoodTrial	 allStim	 si
14	 5	 0	 x	 LineStimuli//2.8/stimNo128r0c0v2.8.jpg	 r	 2.691	 GoodTrial	 allStim	 si
15	 5	 0	 x	 LineStimuli//3.3/stimNo147r0c0v3.3.jpg	 r	 2.320	 GoodTrial	 allStim	 si
16	 5	 1	 right	 LineStimuli//3.8/stimNo92r6c21v3.8.jpg	 l	 1.852	 GoodTrial	 allStim	 si
17	 5	 0	 x	 LineStimuli//4.3/stimNo147r0c0v4.3.jpg	 r	 1.881	 GoodTrial	 allStim	 si
18	 5	 1	 left	 LineStimuli//4.3/stimNo85r3c5v4.3.jpg	 l	 1.745	 GoodTrial	 allStim	 si
19	 5	 0	 x	 LineStimuli//3.8/stimNo127r0c0v3.8.jpg	 r	 5.772	 GoodTrial	 allStim	 si
20	 5	 0	 x	 LineStimuli//3.3/stimNo138r0c0v3.3.jpg	 r	 3.870	 GoodTrial	 allStim	 si
21	 5	 0	 x	 LineStimuli//2.8/stimNo158r0c0v2.8.jpg	 r	 3.176	 GoodTrial	 allStim	 si
22	 5	 0	 x	 LineStimuli//2.3/stimNo128r0c0v2.3.jpg	 r	 5.927	 GoodTrial	 allStim	 si
23	 5	 0	 x	 LineStimuli//1.8/stimNo143r0c0v1.8.jpg	 r	 2.681	 GoodTrial	 allStim	 si
24	 5	 1	 right	 LineStimuli//1.5/stimNo82r11c15v1.5.jpg	 r	 4.439	 GoodTrial	 allStim	 si
25	 5	 1	 right	 LineStimuli//1.5/stimNo81r6c17v1.5.jpg	 l	 3.322	 GoodTrial	 allStim	 si
26	 5	 0	 x	 LineStimuli//1.8/stimNo122r0c0v1.8.jpg	 x	 1.121	 GoodTrial	 allStim	 si
27	 5	 0	 x	 LineStimuli//2.3/stimNo123r0c0v2.3.jpg	 r	 5.974	 GoodTrial	 allStim	 si
28	 5	 1	 left	 LineStimuli//2.8/stimNo116r4c7v2.8.jpg	 l	 1.645	 GoodTrial	 allStim	 si
29	 5	 0	 x	 LineStimuli//3.3/stimNo138r0c0v3.3.jpg	 r	 5.337	 GoodTrial	 allStim	 si
30	 5	 1	 left	 LineStimuli//3.8/stimNo98r2c9v3.8.jpg	 l	 1.830	 GoodTrial	 allStim	 si
31	 5	 0	 x	 LineStimuli//4.3/stimNo132r0c0v4.3.jpg	 r	 2.801	 GoodTrial	 allStim	 si
32	 5	 0	 x	 LineStimuli//4.3/stimNo132r0c0v4.3.jpg	 r	 2.596	 GoodTrial	 allStim	 si
33	 5	 1	 left	 LineStimuli//3.8/stimNo86r7c7v3.8.jpg	 l	 1.930	 GoodTrial	 allStim	 si
34	 5	 1	 left	 LineStimuli//3.3/stimNo90r2c9v3.3.jpg	 l	 1.633	 GoodTrial	 allStim	 si
35	 5	 1	 right	 LineStimuli//2.8/stimNo117r11c17v2.8.jpg	 l	 2.026	 GoodTrial	 allStim	 si
36	 5	 1	 left	 LineStimuli//2.3/stimNo115r7c3v2.3.jpg	 l	 1.739	 GoodTrial	 allStim	 si
37	 5	 1	 left	 LineStimuli//1.8/stimNo94r13c8v1.8.jpg	 l	 3.409	 GoodTrial	 allStim	 si
38	 5	 0	 x	 LineStimuli//1.5/stimNo159r0c0v1.5.jpg	 r	 4.025	 GoodTrial	 allStim	 si
39	 5	 0	 x	 LineStimuli//1.5/stimNo142r0c0v1.5.jpg	 r	 4.095	 GoodTrial	 allStim	 si
40	 5	 0	 x	 LineStimuli//1.8/stimNo145r0c0v1.8.jpg	 r	 2.440	 GoodTrial	 allStim	 si
41	 5	 1	 right	 LineStimuli//2.3/stimNo102r6c18v2.3.jpg	 l	 1.840	 GoodTrial	 allStim	 si
42	 5	 0	 x	 LineStimuli//2.8/stimNo158r0c0v2.8.jpg	 r	 2.200	 GoodTrial	 allStim	 si
43	 5	 0	 x	 LineStimuli//3.3/stimNo157r0c0v3.3.jpg	 r	 1.969	 GoodTrial	 allStim	 si
44	 5	 0	 x	 LineStimuli//3.8/stimNo145r0c0v3.8.jpg	 r	 1.592	 GoodTrial	 allStim	 si
45	 5	 0	 x	 LineStimuli//4.3/stimNo138r0c0v4.3.jpg	 r	 1.913	 GoodTrial	 allStim	 si
46	 5	 0	 x	 LineStimuli//4.3/stimNo128r0c0v4.3.jpg	 r	 1.808	 GoodTrial	 allStim	 si
47	 5	 0	 x	 LineStimuli//3.8/stimNo150r0c0v3.8.jpg	 r	 1.530	 GoodTrial	 allStim	 si
48	 5	 0	 x	 LineStimuli//3.3/stimNo128r0c0v3.3.jpg	 r	 1.588	 GoodTrial	 allStim	 si
49	 5	 0	 x	 LineStimuli//2.8/stimNo144r0c0v2.8.jpg	 r	 1.584	 GoodTrial	 allStim	 si
50	 5	 0	 x	 LineStimuli//2.3/stimNo154r0c0v2.3.jpg	 r	 1.616	 GoodTrial	 allStim	 si
1	 6	 0	 x	 LineStimuli//3.3/stimNo141r0c0v3.3.jpg	 r	 2.002	 GoodTrial	 allStim	 si
2	 6	 0	 x	 LineStimuli//3.8/stimNo150r0c0v3.8.jpg	 r	 1.728	 GoodTrial	 allStim	 si
3	 6	 1	 left	 LineStimuli//4.3/stimNo87r3c5v4.3.jpg	 l	 1.576	 GoodTrial	 allStim	 si
4	 6	 0	 x	 LineStimuli//4.3/stimNo129r0c0v4.3.jpg	 r	 1.774	 GoodTrial	 allStim	 si
5	 6	 1	 left	 LineStimuli//3.8/stimNo120r5c3v3.8.jpg	 l	 4.524	 GoodTrial	 allStim	 si
6	 6	 0	 x	 LineStimuli//3.3/stimNo139r0c0v3.3.jpg	 r	 1.982	 GoodTrial	 allStim	 si
7	 6	 0	 x	 LineStimuli//2.8/stimNo154r0c0v2.8.jpg	 r	 1.896	 GoodTrial	 allStim	 si
8	 6	 1	 right	 LineStimuli//2.3/stimNo102r6c18v2.3.jpg	 l	 2.289	 GoodTrial	 allStim	 si
9	 6	 0	 x	 LineStimuli//1.8/stimNo130r0c0v1.8.jpg	 r	 4.668	 GoodTrial	 allStim	 si
10	 6	 0	 x	 LineStimuli//1.5/stimNo121r0c0v1.5.jpg	 r	 4.174	 GoodTrial	 allStim	 si
11	 6	 0	 x	 LineStimuli//1.5/stimNo141r0c0v1.5.jpg	 r	 6.767	 GoodTrial	 allStim	 si
12	 6	 1	 right	 LineStimuli//1.8/stimNo92r10c18v1.8.jpg	 l	 2.139	 GoodTrial	 allStim	 si
13	 6	 1	 right	 LineStimuli//2.3/stimNo87r13c19v2.3.jpg	 l	 1.774	 GoodTrial	 allStim	 si
14	 6	 0	 x	 LineStimuli//2.8/stimNo146r0c0v2.8.jpg	 r	 3.685	 GoodTrial	 allStim	 si
15	 6	 1	 left	 LineStimuli//3.3/stimNo119r15c7v3.3.jpg	 l	 3.056	 GoodTrial	 allStim	 si
16	 6	 1	 left	 LineStimuli//3.8/stimNo89r10c7v3.8.jpg	 l	 1.943	 GoodTrial	 allStim	 si
17	 6	 0	 x	 LineStimuli//4.3/stimNo157r0c0v4.3.jpg	 r	 1.713	 GoodTrial	 allStim	 si
18	 6	 0	 x	 LineStimuli//4.3/stimNo121r0c0v4.3.jpg	 r	 1.771	 GoodTrial	 allStim	 si
19	 6	 1	 left	 LineStimuli//3.8/stimNo89r10c7v3.8.jpg	 l	 1.635	 GoodTrial	 allStim	 si
20	 6	 0	 x	 LineStimuli//3.3/stimNo138r0c0v3.3.jpg	 r	 1.704	 GoodTrial	 allStim	 si
21	 6	 1	 right	 LineStimuli//2.8/stimNo92r14c21v2.8.jpg	 l	 1.854	 GoodTrial	 allStim	 si
22	 6	 0	 x	 LineStimuli//2.3/stimNo150r0c0v2.3.jpg	 r	 2.400	 GoodTrial	 allStim	 si
23	 6	 0	 x	 LineStimuli//1.8/stimNo131r0c0v1.8.jpg	 r	 3.057	 GoodTrial	 allStim	 si
24	 6	 0	 x	 LineStimuli//1.5/stimNo141r0c0v1.5.jpg	 r	 6.476	 GoodTrial	 allStim	 si
25	 6	 1	 right	 LineStimuli//1.5/stimNo98r8c21v1.5.jpg	 r	 6.096	 GoodTrial	 allStim	 si
26	 6	 0	 x	 LineStimuli//1.8/stimNo136r0c0v1.8.jpg	 r	 5.424	 GoodTrial	 allStim	 si
27	 6	 0	 x	 LineStimuli//2.3/stimNo128r0c0v2.3.jpg	 r	 3.537	 GoodTrial	 allStim	 si
28	 6	 0	 x	 LineStimuli//2.8/stimNo141r0c0v2.8.jpg	 r	 2.752	 GoodTrial	 allStim	 si
29	 6	 1	 right	 LineStimuli//3.3/stimNo98r4c21v3.3.jpg	 l	 2.203	 GoodTrial	 allStim	 si
30	 6	 0	 x	 LineStimuli//3.8/stimNo146r0c0v3.8.jpg	 r	 3.255	 GoodTrial	 allStim	 si
31	 6	 0	 x	 LineStimuli//4.3/stimNo129r0c0v4.3.jpg	 r	 2.083	 GoodTrial	 allStim	 si
32	 6	 1	 left	 LineStimuli//4.3/stimNo105r14c6v4.3.jpg	 l	 1.721	 GoodTrial	 allStim	 si
33	 6	 0	 x	 LineStimuli//3.8/stimNo138r0c0v3.8.jpg	 r	 1.751	 GoodTrial	 allStim	 si
34	 6	 1	 left	 LineStimuli//3.3/stimNo119r15c7v3.3.jpg	 l	 1.595	 GoodTrial	 allStim	 si
35	 6	 0	 x	 LineStimuli//2.8/stimNo131r0c0v2.8.jpg	 r	 1.752	 GoodTrial	 allStim	 si
36	 6	 0	 x	 LineStimuli//2.3/stimNo132r0c0v2.3.jpg	 r	 1.824	 GoodTrial	 allStim	 si
37	 6	 1	 right	 LineStimuli//1.8/stimNo119r3c21v1.8.jpg	 l	 3.168	 GoodTrial	 allStim	 si
38	 6	 0	 x	 LineStimuli//1.5/stimNo126r0c0v1.5.jpg	 r	 8.032	 GoodTrial	 allStim	 si
39	 6	 1	 left	 LineStimuli//1.5/stimNo97r15c6v1.5.jpg	 l	 2.129	 GoodTrial	 allStim	 si
40	 6	 1	 right	 LineStimuli//1.8/stimNo100r9c13v1.8.jpg	 l	 1.985	 GoodTrial	 allStim	 si
41	 6	 1	 left	 LineStimuli//2.3/stimNo100r8c6v2.3.jpg	 l	 3.489	 GoodTrial	 allStim	 si
42	 6	 0	 x	 LineStimuli//2.8/stimNo138r0c0v2.8.jpg	 r	 2.188	 GoodTrial	 allStim	 si
43	 6	 1	 left	 LineStimuli//3.3/stimNo83r8c3v3.3.jpg	 l	 1.660	 GoodTrial	 allStim	 si
44	 6	 0	 x	 LineStimuli//3.8/stimNo132r0c0v3.8.jpg	 r	 2.423	 GoodTrial	 allStim	 si
45	 6	 1	 right	 LineStimuli//4.3/stimNo118r11c13v4.3.jpg	 l	 1.596	 GoodTrial	 allStim	 si
46	 6	 0	 x	 LineStimuli//4.3/stimNo134r0c0v4.3.jpg	 r	 1.888	 GoodTrial	 allStim	 si
47	 6	 0	 x	 LineStimuli//3.8/stimNo148r0c0v3.8.jpg	 r	 1.778	 GoodTrial	 allStim	 si
48	 6	 1	 right	 LineStimuli//3.3/stimNo97r6c13v3.3.jpg	 l	 1.765	 GoodTrial	 allStim	 si
49	 6	 1	 right	 LineStimuli//2.8/stimNo114r8c19v2.8.jpg	 l	 1.795	 GoodTrial	 allStim	 si
50	 6	 1	 left	 LineStimuli//2.3/stimNo100r8c6v2.3.jpg	 l	 2.072	 GoodTrial	 allStim	 si
1	 7	 1	 right	 LineStimuli//3.3/stimNo91r12c16v3.3.jpg	 l	 2.276	 GoodTrial	 allStim	 si
2	 7	 0	 x	 LineStimuli//3.8/stimNo122r0c0v3.8.jpg	 r	 2.273	 GoodTrial	 allStim	 si
3	 7	 0	 x	 LineStimuli//4.3/stimNo141r0c0v4.3.jpg	 r	 1.755	 GoodTrial	 allStim	 si
4	 7	 1	 left	 LineStimuli//4.3/stimNo88r10c3v4.3.jpg	 l	 1.533	 GoodTrial	 allStim	 si
5	 7	 1	 left	 LineStimuli//3.8/stimNo98r2c9v3.8.jpg	 l	 1.585	 GoodTrial	 allStim	 si
6	 7	 0	 x	 LineStimuli//3.3/stimNo121r0c0v3.3.jpg	 r	 2.145	 GoodTrial	 allStim	 si
7	 7	 1	 left	 LineStimuli//2.8/stimNo84r3c9v2.8.jpg	 l	 1.669	 GoodTrial	 allStim	 si
8	 7	 0	 x	 LineStimuli//2.3/stimNo156r0c0v2.3.jpg	 r	 1.680	 GoodTrial	 allStim	 si
9	 7	 1	 right	 LineStimuli//1.8/stimNo97r15c18v1.8.jpg	 l	 2.613	 GoodTrial	 allStim	 si
10	 7	 1	 right	 LineStimuli//1.5/stimNo119r6c19v1.5.jpg	 r	 4.251	 GoodTrial	 allStim	 si
11	 7	 1	 right	 LineStimuli//1.5/stimNo82r11c15v1.5.jpg	 l	 2.328	 GoodTrial	 allStim	 si
12	 7	 1	 left	 LineStimuli//1.8/stimNo95r4c9v1.8.jpg	 l	 1.799	 GoodTrial	 allStim	 si
13	 7	 0	 x	 LineStimuli//2.3/stimNo131r0c0v2.3.jpg	 r	 4.523	 GoodTrial	 allStim	 si
14	 7	 0	 x	 LineStimuli//2.8/stimNo125r0c0v2.8.jpg	 r	 2.752	 GoodTrial	 allStim	 si
15	 7	 1	 right	 LineStimuli//3.3/stimNo116r10c14v3.3.jpg	 l	 4.441	 GoodTrial	 allStim	 si
16	 7	 0	 x	 LineStimuli//3.8/stimNo129r0c0v3.8.jpg	 r	 1.888	 GoodTrial	 allStim	 si
17	 7	 0	 x	 LineStimuli//4.3/stimNo151r0c0v4.3.jpg	 r	 2.600	 GoodTrial	 allStim	 si
18	 7	 0	 x	 LineStimuli//4.3/stimNo132r0c0v4.3.jpg	 r	 1.750	 GoodTrial	 allStim	 si
19	 7	 0	 x	 LineStimuli//3.8/stimNo122r0c0v3.8.jpg	 r	 2.571	 GoodTrial	 allStim	 si
20	 7	 1	 right	 LineStimuli//3.3/stimNo113r13c15v3.3.jpg	 l	 1.613	 GoodTrial	 allStim	 si
21	 7	 0	 x	 LineStimuli//2.8/stimNo146r0c0v2.8.jpg	 r	 2.730	 GoodTrial	 allStim	 si
22	 7	 1	 left	 LineStimuli//2.3/stimNo104r2c4v2.3.jpg	 l	 2.139	 GoodTrial	 allStim	 si
23	 7	 0	 x	 LineStimuli//1.8/stimNo141r0c0v1.8.jpg	 r	 1.991	 GoodTrial	 allStim	 si
24	 7	 0	 x	 LineStimuli//1.5/stimNo153r0c0v1.5.jpg	 r	 3.264	 GoodTrial	 allStim	 si
25	 7	 0	 x	 LineStimuli//1.5/stimNo145r0c0v1.5.jpg	 r	 3.212	 GoodTrial	 allStim	 si
26	 7	 1	 right	 LineStimuli//1.8/stimNo119r3c21v1.8.jpg	 l	 3.552	 GoodTrial	 allStim	 si
27	 7	 1	 right	 LineStimuli//2.3/stimNo111r11c21v2.3.jpg	 l	 2.139	 GoodTrial	 allStim	 si
28	 7	 0	 x	 LineStimuli//2.8/stimNo129r0c0v2.8.jpg	 r	 2.310	 GoodTrial	 allStim	 si
29	 7	 0	 x	 LineStimuli//3.3/stimNo123r0c0v3.3.jpg	 r	 2.336	 GoodTrial	 allStim	 si
30	 7	 0	 x	 LineStimuli//3.8/stimNo154r0c0v3.8.jpg	 r	 1.858	 GoodTrial	 allStim	 si
31	 7	 0	 x	 LineStimuli//4.3/stimNo126r0c0v4.3.jpg	 r	 1.831	 GoodTrial	 allStim	 si
32	 7	 0	 x	 LineStimuli//4.3/stimNo139r0c0v4.3.jpg	 r	 1.793	 GoodTrial	 allStim	 si
33	 7	 1	 left	 LineStimuli//3.8/stimNo108r3c6v3.8.jpg	 l	 1.660	 GoodTrial	 allStim	 si
34	 7	 0	 x	 LineStimuli//3.3/stimNo129r0c0v3.3.jpg	 r	 1.841	 GoodTrial	 allStim	 si
35	 7	 0	 x	 LineStimuli//2.8/stimNo150r0c0v2.8.jpg	 r	 1.665	 GoodTrial	 allStim	 si
36	 7	 0	 x	 LineStimuli//2.3/stimNo153r0c0v2.3.jpg	 r	 5.436	 GoodTrial	 allStim	 si
37	 7	 0	 x	 LineStimuli//1.8/stimNo121r0c0v1.8.jpg	 r	 5.672	 GoodTrial	 allStim	 si
38	 7	 1	 left	 LineStimuli//1.5/stimNo116r7c7v1.5.jpg	 r	 4.631	 GoodTrial	 allStim	 si
39	 7	 0	 x	 LineStimuli//1.5/stimNo151r0c0v1.5.jpg	 r	 10.822	 GoodTrial	 allStim	 si
40	 7	 1	 right	 LineStimuli//1.8/stimNo117r10c16v1.8.jpg	 l	 1.892	 GoodTrial	 allStim	 si
41	 7	 1	 right	 LineStimuli//2.3/stimNo102r6c18v2.3.jpg	 r	 2.640	 GoodTrial	 allStim	 si
42	 7	 1	 left	 LineStimuli//2.8/stimNo86r15c6v2.8.jpg	 l	 1.670	 GoodTrial	 allStim	 si
43	 7	 1	 right	 LineStimuli//3.3/stimNo112r5c15v3.3.jpg	 l	 1.699	 GoodTrial	 allStim	 si
44	 7	 0	 x	 LineStimuli//3.8/stimNo138r0c0v3.8.jpg	 r	 2.744	 GoodTrial	 allStim	 si
45	 7	 1	 right	 LineStimuli//4.3/stimNo91r9c13v4.3.jpg	 l	 2.012	 GoodTrial	 allStim	 si
46	 7	 1	 left	 LineStimuli//4.3/stimNo100r8c3v4.3.jpg	 l	 2.071	 GoodTrial	 allStim	 si
47	 7	 0	 x	 LineStimuli//3.8/stimNo157r0c0v3.8.jpg	 r	 1.629	 GoodTrial	 allStim	 si
48	 7	 1	 right	 LineStimuli//3.3/stimNo118r3c16v3.3.jpg	 l	 1.603	 GoodTrial	 allStim	 si
49	 7	 0	 x	 LineStimuli//2.8/stimNo126r0c0v2.8.jpg	 r	 2.151	 GoodTrial	 allStim	 si
50	 7	 0	 x	 LineStimuli//2.3/stimNo134r0c0v2.3.jpg	 r	 2.070	 GoodTrial	 allStim	 si
