Trial	Block	Target_pr	Target_side	Name	Key	RT	Message	Block_Type	Condition
1	 1	 0	 x	 LineStimuli//3.3/stimNo124r0c0v3.3.jpg	 l	 2.287	 GoodTrial	 allStim	 si
2	 1	 0	 x	 LineStimuli//3.8/stimNo138r0c0v3.8.jpg	 r	 1.976	 GoodTrial	 allStim	 si
3	 1	 0	 x	 LineStimuli//4.3/stimNo127r0c0v4.3.jpg	 r	 1.705	 GoodTrial	 allStim	 si
4	 1	 1	 left	 LineStimuli//4.3/stimNo95r11c9v4.3.jpg	 l	 1.793	 GoodTrial	 allStim	 si
5	 1	 1	 left	 LineStimuli//3.8/stimNo110r7c9v3.8.jpg	 r	 1.897	 GoodTrial	 allStim	 si
6	 1	 0	 x	 LineStimuli//3.3/stimNo157r0c0v3.3.jpg	 r	 2.043	 GoodTrial	 allStim	 si
7	 1	 0	 x	 LineStimuli//2.8/stimNo140r0c0v2.8.jpg	 r	 1.977	 GoodTrial	 allStim	 si
8	 1	 0	 x	 LineStimuli//2.3/stimNo125r0c0v2.3.jpg	 r	 1.752	 GoodTrial	 allStim	 si
9	 1	 1	 right	 LineStimuli//1.8/stimNo111r4c21v1.8.jpg	 r	 2.253	 GoodTrial	 allStim	 si
10	 1	 1	 left	 LineStimuli//1.5/stimNo113r4c4v1.5.jpg	 r	 1.675	 GoodTrial	 allStim	 si
11	 1	 1	 right	 LineStimuli//1.5/stimNo104r5c18v1.5.jpg	 r	 2.051	 GoodTrial	 allStim	 si
12	 1	 1	 right	 LineStimuli//1.8/stimNo118r11c15v1.8.jpg	 l	 2.193	 GoodTrial	 allStim	 si
13	 1	 1	 right	 LineStimuli//2.3/stimNo118r4c17v2.3.jpg	 l	 2.019	 GoodTrial	 allStim	 si
14	 1	 1	 right	 LineStimuli//2.8/stimNo85r4c15v2.8.jpg	 l	 1.615	 GoodTrial	 allStim	 si
15	 1	 1	 right	 LineStimuli//3.3/stimNo97r6c13v3.3.jpg	 l	 1.782	 GoodTrial	 allStim	 si
16	 1	 0	 x	 LineStimuli//3.8/stimNo155r0c0v3.8.jpg	 r	 2.210	 GoodTrial	 allStim	 si
17	 1	 1	 right	 LineStimuli//4.3/stimNo114r10c15v4.3.jpg	 l	 1.561	 GoodTrial	 allStim	 si
18	 1	 1	 left	 LineStimuli//4.3/stimNo85r3c5v4.3.jpg	 r	 1.911	 GoodTrial	 allStim	 si
19	 1	 1	 right	 LineStimuli//3.8/stimNo102r10c17v3.8.jpg	 l	 1.894	 GoodTrial	 allStim	 si
20	 1	 0	 x	 LineStimuli//3.3/stimNo141r0c0v3.3.jpg	 r	 1.932	 GoodTrial	 allStim	 si
21	 1	 1	 left	 LineStimuli//2.8/stimNo83r12c4v2.8.jpg	 r	 2.479	 GoodTrial	 allStim	 si
22	 1	 1	 left	 LineStimuli//2.3/stimNo119r3c2v2.3.jpg	 r	 2.220	 GoodTrial	 allStim	 si
23	 1	 1	 right	 LineStimuli//1.8/stimNo84r11c21v1.8.jpg	 r	 3.219	 GoodTrial	 allStim	 si
24	 1	 0	 x	 LineStimuli//1.5/stimNo155r0c0v1.5.jpg	 r	 5.735	 GoodTrial	 allStim	 si
25	 1	 0	 x	 LineStimuli//1.5/stimNo133r0c0v1.5.jpg	 r	 2.420	 GoodTrial	 allStim	 si
26	 1	 0	 x	 LineStimuli//1.8/stimNo133r0c0v1.8.jpg	 r	 3.194	 GoodTrial	 allStim	 si
27	 1	 1	 left	 LineStimuli//2.3/stimNo112r3c2v2.3.jpg	 l	 2.220	 GoodTrial	 allStim	 si
28	 1	 0	 x	 LineStimuli//2.8/stimNo124r0c0v2.8.jpg	 r	 3.335	 GoodTrial	 allStim	 si
29	 1	 1	 right	 LineStimuli//3.3/stimNo97r6c13v3.3.jpg	 l	 1.787	 GoodTrial	 allStim	 si
30	 1	 0	 x	 LineStimuli//3.8/stimNo159r0c0v3.8.jpg	 r	 2.103	 GoodTrial	 allStim	 si
31	 1	 0	 x	 LineStimuli//4.3/stimNo131r0c0v4.3.jpg	 r	 2.292	 GoodTrial	 allStim	 si
32	 1	 0	 x	 LineStimuli//4.3/stimNo144r0c0v4.3.jpg	 r	 1.886	 GoodTrial	 allStim	 si
33	 1	 1	 right	 LineStimuli//3.8/stimNo107r9c18v3.8.jpg	 l	 1.683	 GoodTrial	 allStim	 si
34	 1	 0	 x	 LineStimuli//3.3/stimNo123r0c0v3.3.jpg	 r	 1.790	 GoodTrial	 allStim	 si
35	 1	 1	 right	 LineStimuli//2.8/stimNo99r9c18v2.8.jpg	 l	 1.824	 GoodTrial	 allStim	 si
36	 1	 0	 x	 LineStimuli//2.3/stimNo135r0c0v2.3.jpg	 r	 2.089	 GoodTrial	 allStim	 si
37	 1	 1	 left	 LineStimuli//1.8/stimNo107r5c4v1.8.jpg	 l	 2.644	 GoodTrial	 allStim	 si
38	 1	 0	 x	 LineStimuli//1.5/stimNo125r0c0v1.5.jpg	 r	 2.904	 GoodTrial	 allStim	 si
39	 1	 1	 left	 LineStimuli//1.5/stimNo85r2c5v1.5.jpg	 r	 2.784	 GoodTrial	 allStim	 si
40	 1	 0	 x	 LineStimuli//1.8/stimNo127r0c0v1.8.jpg	 x	 0.480	 EARLY_RESPONSE	 allStim	 si
41	 1	 0	 x	 LineStimuli//2.3/stimNo145r0c0v2.3.jpg	 r	 2.142	 GoodTrial	 allStim	 si
42	 1	 0	 x	 LineStimuli//2.8/stimNo150r0c0v2.8.jpg	 r	 3.008	 GoodTrial	 allStim	 si
43	 1	 1	 left	 LineStimuli//3.3/stimNo94r14c9v3.3.jpg	 l	 1.842	 GoodTrial	 allStim	 si
44	 1	 0	 x	 LineStimuli//3.8/stimNo121r0c0v3.8.jpg	 r	 2.056	 GoodTrial	 allStim	 si
45	 1	 1	 right	 LineStimuli//4.3/stimNo119r12c17v4.3.jpg	 l	 1.538	 GoodTrial	 allStim	 si
46	 1	 0	 x	 LineStimuli//4.3/stimNo139r0c0v4.3.jpg	 r	 1.724	 GoodTrial	 allStim	 si
47	 1	 0	 x	 LineStimuli//3.8/stimNo160r0c0v3.8.jpg	 r	 1.596	 GoodTrial	 allStim	 si
48	 1	 0	 x	 LineStimuli//3.3/stimNo129r0c0v3.3.jpg	 r	 1.536	 GoodTrial	 allStim	 si
49	 1	 0	 x	 LineStimuli//2.8/stimNo142r0c0v2.8.jpg	 r	 2.053	 GoodTrial	 allStim	 si
50	 1	 0	 x	 LineStimuli//2.3/stimNo125r0c0v2.3.jpg	 r	 2.268	 GoodTrial	 allStim	 si
1	 2	 0	 x	 LineStimuli//3.3/stimNo123r0c0v3.3.jpg	 l	 1.656	 GoodTrial	 allStim	 si
2	 2	 1	 right	 LineStimuli//3.8/stimNo102r10c17v3.8.jpg	 l	 1.864	 GoodTrial	 allStim	 si
3	 2	 0	 x	 LineStimuli//4.3/stimNo136r0c0v4.3.jpg	 r	 1.869	 GoodTrial	 allStim	 si
4	 2	 1	 right	 LineStimuli//4.3/stimNo84r15c20v4.3.jpg	 l	 1.626	 GoodTrial	 allStim	 si
5	 2	 1	 left	 LineStimuli//3.8/stimNo104r12c8v3.8.jpg	 l	 1.737	 GoodTrial	 allStim	 si
6	 2	 0	 x	 LineStimuli//3.3/stimNo160r0c0v3.3.jpg	 r	 1.648	 GoodTrial	 allStim	 si
7	 2	 1	 left	 LineStimuli//2.8/stimNo89r12c4v2.8.jpg	 l	 1.630	 GoodTrial	 allStim	 si
8	 2	 1	 left	 LineStimuli//2.3/stimNo81r4c3v2.3.jpg	 l	 1.943	 GoodTrial	 allStim	 si
9	 2	 1	 left	 LineStimuli//1.8/stimNo107r5c4v1.8.jpg	 x	 0.376	 EARLY_RESPONSE	 allStim	 si
10	 2	 1	 left	 LineStimuli//1.5/stimNo120r14c2v1.5.jpg	 r	 2.159	 GoodTrial	 allStim	 si
11	 2	 0	 x	 LineStimuli//1.5/stimNo158r0c0v1.5.jpg	 r	 2.983	 GoodTrial	 allStim	 si
12	 2	 0	 x	 LineStimuli//1.8/stimNo147r0c0v1.8.jpg	 r	 2.513	 GoodTrial	 allStim	 si
13	 2	 1	 right	 LineStimuli//2.3/stimNo107r11c15v2.3.jpg	 l	 1.659	 GoodTrial	 allStim	 si
14	 2	 1	 left	 LineStimuli//2.8/stimNo88r15c3v2.8.jpg	 l	 1.792	 GoodTrial	 allStim	 si
15	 2	 1	 left	 LineStimuli//3.3/stimNo85r6c4v3.3.jpg	 l	 1.855	 GoodTrial	 allStim	 si
16	 2	 0	 x	 LineStimuli//3.8/stimNo143r0c0v3.8.jpg	 r	 1.998	 GoodTrial	 allStim	 si
17	 2	 0	 x	 LineStimuli//4.3/stimNo152r0c0v4.3.jpg	 r	 2.075	 GoodTrial	 allStim	 si
18	 2	 0	 x	 LineStimuli//4.3/stimNo144r0c0v4.3.jpg	 r	 1.749	 GoodTrial	 allStim	 si
19	 2	 0	 x	 LineStimuli//3.8/stimNo152r0c0v3.8.jpg	 r	 1.713	 GoodTrial	 allStim	 si
20	 2	 0	 x	 LineStimuli//3.3/stimNo121r0c0v3.3.jpg	 r	 2.025	 GoodTrial	 allStim	 si
21	 2	 0	 x	 LineStimuli//2.8/stimNo156r0c0v2.8.jpg	 r	 2.351	 GoodTrial	 allStim	 si
22	 2	 1	 right	 LineStimuli//2.3/stimNo110r15c19v2.3.jpg	 l	 2.137	 GoodTrial	 allStim	 si
23	 2	 1	 right	 LineStimuli//1.8/stimNo114r8c13v1.8.jpg	 l	 2.609	 GoodTrial	 allStim	 si
24	 2	 1	 left	 LineStimuli//1.5/stimNo106r3c7v1.5.jpg	 r	 3.277	 GoodTrial	 allStim	 si
25	 2	 0	 x	 LineStimuli//1.5/stimNo157r0c0v1.5.jpg	 l	 3.871	 GoodTrial	 allStim	 si
26	 2	 1	 right	 LineStimuli//1.8/stimNo101r4c13v1.8.jpg	 l	 2.825	 GoodTrial	 allStim	 si
27	 2	 0	 x	 LineStimuli//2.3/stimNo137r0c0v2.3.jpg	 r	 2.727	 GoodTrial	 allStim	 si
28	 2	 1	 right	 LineStimuli//2.8/stimNo110r7c14v2.8.jpg	 l	 1.841	 GoodTrial	 allStim	 si
29	 2	 0	 x	 LineStimuli//3.3/stimNo141r0c0v3.3.jpg	 r	 2.949	 GoodTrial	 allStim	 si
30	 2	 0	 x	 LineStimuli//3.8/stimNo151r0c0v3.8.jpg	 r	 2.367	 GoodTrial	 allStim	 si
31	 2	 0	 x	 LineStimuli//4.3/stimNo125r0c0v4.3.jpg	 r	 2.005	 GoodTrial	 allStim	 si
32	 2	 0	 x	 LineStimuli//4.3/stimNo131r0c0v4.3.jpg	 r	 1.873	 GoodTrial	 allStim	 si
33	 2	 1	 right	 LineStimuli//3.8/stimNo102r10c17v3.8.jpg	 l	 1.803	 GoodTrial	 allStim	 si
34	 2	 0	 x	 LineStimuli//3.3/stimNo158r0c0v3.3.jpg	 r	 2.018	 GoodTrial	 allStim	 si
35	 2	 0	 x	 LineStimuli//2.8/stimNo136r0c0v2.8.jpg	 r	 1.792	 GoodTrial	 allStim	 si
36	 2	 0	 x	 LineStimuli//2.3/stimNo156r0c0v2.3.jpg	 r	 2.157	 GoodTrial	 allStim	 si
37	 2	 1	 left	 LineStimuli//1.8/stimNo115r5c9v1.8.jpg	 r	 2.202	 GoodTrial	 allStim	 si
38	 2	 0	 x	 LineStimuli//1.5/stimNo124r0c0v1.5.jpg	 r	 2.916	 GoodTrial	 allStim	 si
39	 2	 0	 x	 LineStimuli//1.5/stimNo144r0c0v1.5.jpg	 r	 3.059	 GoodTrial	 allStim	 si
40	 2	 1	 left	 LineStimuli//1.8/stimNo103r15c10v1.8.jpg	 r	 2.674	 GoodTrial	 allStim	 si
41	 2	 1	 right	 LineStimuli//2.3/stimNo84r15c14v2.3.jpg	 r	 3.057	 GoodTrial	 allStim	 si
42	 2	 1	 left	 LineStimuli//2.8/stimNo94r13c7v2.8.jpg	 l	 1.736	 GoodTrial	 allStim	 si
43	 2	 0	 x	 LineStimuli//3.3/stimNo141r0c0v3.3.jpg	 r	 2.316	 GoodTrial	 allStim	 si
44	 2	 0	 x	 LineStimuli//3.8/stimNo144r0c0v3.8.jpg	 r	 1.868	 GoodTrial	 allStim	 si
45	 2	 1	 right	 LineStimuli//4.3/stimNo117r10c21v4.3.jpg	 l	 1.723	 GoodTrial	 allStim	 si
46	 2	 0	 x	 LineStimuli//4.3/stimNo156r0c0v4.3.jpg	 r	 2.212	 GoodTrial	 allStim	 si
47	 2	 1	 right	 LineStimuli//3.8/stimNo84r9c19v3.8.jpg	 l	 1.735	 GoodTrial	 allStim	 si
48	 2	 0	 x	 LineStimuli//3.3/stimNo130r0c0v3.3.jpg	 r	 1.758	 GoodTrial	 allStim	 si
49	 2	 1	 left	 LineStimuli//2.8/stimNo89r12c4v2.8.jpg	 l	 1.723	 GoodTrial	 allStim	 si
50	 2	 1	 right	 LineStimuli//2.3/stimNo120r4c17v2.3.jpg	 l	 1.660	 GoodTrial	 allStim	 si
1	 3	 0	 x	 LineStimuli//3.3/stimNo130r0c0v3.3.jpg	 r	 2.096	 GoodTrial	 allStim	 si
2	 3	 0	 x	 LineStimuli//3.8/stimNo126r0c0v3.8.jpg	 r	 1.640	 GoodTrial	 allStim	 si
3	 3	 0	 x	 LineStimuli//4.3/stimNo158r0c0v4.3.jpg	 r	 1.686	 GoodTrial	 allStim	 si
4	 3	 1	 right	 LineStimuli//4.3/stimNo119r12c17v4.3.jpg	 l	 1.672	 GoodTrial	 allStim	 si
5	 3	 0	 x	 LineStimuli//3.8/stimNo157r0c0v3.8.jpg	 r	 1.640	 GoodTrial	 allStim	 si
6	 3	 0	 x	 LineStimuli//3.3/stimNo156r0c0v3.3.jpg	 r	 1.748	 GoodTrial	 allStim	 si
7	 3	 0	 x	 LineStimuli//2.8/stimNo140r0c0v2.8.jpg	 r	 1.740	 GoodTrial	 allStim	 si
8	 3	 1	 right	 LineStimuli//2.3/stimNo89r8c21v2.3.jpg	 l	 1.910	 GoodTrial	 allStim	 si
9	 3	 0	 x	 LineStimuli//1.8/stimNo149r0c0v1.8.jpg	 r	 2.129	 GoodTrial	 allStim	 si
10	 3	 0	 x	 LineStimuli//1.5/stimNo129r0c0v1.5.jpg	 r	 2.992	 GoodTrial	 allStim	 si
11	 3	 1	 left	 LineStimuli//1.5/stimNo120r14c2v1.5.jpg	 r	 3.446	 GoodTrial	 allStim	 si
12	 3	 0	 x	 LineStimuli//1.8/stimNo142r0c0v1.8.jpg	 r	 3.522	 GoodTrial	 allStim	 si
13	 3	 0	 x	 LineStimuli//2.3/stimNo122r0c0v2.3.jpg	 r	 2.774	 GoodTrial	 allStim	 si
14	 3	 1	 right	 LineStimuli//2.8/stimNo111r9c15v2.8.jpg	 l	 1.626	 GoodTrial	 allStim	 si
15	 3	 1	 left	 LineStimuli//3.3/stimNo119r15c7v3.3.jpg	 l	 2.238	 GoodTrial	 allStim	 si
16	 3	 0	 x	 LineStimuli//3.8/stimNo149r0c0v3.8.jpg	 r	 1.880	 GoodTrial	 allStim	 si
17	 3	 0	 x	 LineStimuli//4.3/stimNo160r0c0v4.3.jpg	 r	 2.293	 GoodTrial	 allStim	 si
18	 3	 1	 left	 LineStimuli//4.3/stimNo113r11c7v4.3.jpg	 l	 1.602	 GoodTrial	 allStim	 si
19	 3	 1	 right	 LineStimuli//3.8/stimNo101r12c17v3.8.jpg	 l	 1.648	 GoodTrial	 allStim	 si
20	 3	 1	 left	 LineStimuli//3.3/stimNo92r10c7v3.3.jpg	 l	 1.578	 GoodTrial	 allStim	 si
21	 3	 1	 right	 LineStimuli//2.8/stimNo103r3c19v2.8.jpg	 l	 1.742	 GoodTrial	 allStim	 si
22	 3	 1	 left	 LineStimuli//2.3/stimNo108r15c6v2.3.jpg	 l	 1.634	 GoodTrial	 allStim	 si
23	 3	 0	 x	 LineStimuli//1.8/stimNo133r0c0v1.8.jpg	 r	 3.294	 GoodTrial	 allStim	 si
24	 3	 0	 x	 LineStimuli//1.5/stimNo141r0c0v1.5.jpg	 r	 3.770	 GoodTrial	 allStim	 si
25	 3	 1	 right	 LineStimuli//1.5/stimNo119r6c19v1.5.jpg	 r	 3.216	 GoodTrial	 allStim	 si
26	 3	 1	 left	 LineStimuli//1.8/stimNo115r5c9v1.8.jpg	 x	 1.233	 GoodTrial	 allStim	 si
27	 3	 0	 x	 LineStimuli//2.3/stimNo144r0c0v2.3.jpg	 r	 1.969	 GoodTrial	 allStim	 si
28	 3	 1	 right	 LineStimuli//2.8/stimNo112r13c17v2.8.jpg	 l	 1.729	 GoodTrial	 allStim	 si
29	 3	 1	 right	 LineStimuli//3.3/stimNo105r7c20v3.3.jpg	 l	 1.573	 GoodTrial	 allStim	 si
30	 3	 1	 left	 LineStimuli//3.8/stimNo86r7c7v3.8.jpg	 r	 1.855	 GoodTrial	 allStim	 si
31	 3	 1	 left	 LineStimuli//4.3/stimNo85r3c5v4.3.jpg	 l	 1.539	 GoodTrial	 allStim	 si
32	 3	 1	 right	 LineStimuli//4.3/stimNo115r10c18v4.3.jpg	 l	 1.525	 GoodTrial	 allStim	 si
33	 3	 1	 right	 LineStimuli//3.8/stimNo107r9c18v3.8.jpg	 l	 1.605	 GoodTrial	 allStim	 si
34	 3	 1	 left	 LineStimuli//3.3/stimNo93r3c5v3.3.jpg	 l	 1.805	 GoodTrial	 allStim	 si
35	 3	 0	 x	 LineStimuli//2.8/stimNo153r0c0v2.8.jpg	 r	 2.025	 GoodTrial	 allStim	 si
36	 3	 1	 left	 LineStimuli//2.3/stimNo113r3c8v2.3.jpg	 l	 1.740	 GoodTrial	 allStim	 si
37	 3	 1	 left	 LineStimuli//1.8/stimNo87r14c2v1.8.jpg	 r	 3.129	 GoodTrial	 allStim	 si
38	 3	 1	 left	 LineStimuli//1.5/stimNo87r12c5v1.5.jpg	 l	 2.240	 GoodTrial	 allStim	 si
39	 3	 1	 right	 LineStimuli//1.5/stimNo103r13c17v1.5.jpg	 r	 3.965	 GoodTrial	 allStim	 si
40	 3	 0	 x	 LineStimuli//1.8/stimNo153r0c0v1.8.jpg	 r	 3.511	 GoodTrial	 allStim	 si
41	 3	 1	 right	 LineStimuli//2.3/stimNo93r4c16v2.3.jpg	 l	 1.689	 GoodTrial	 allStim	 si
42	 3	 0	 x	 LineStimuli//2.8/stimNo135r0c0v2.8.jpg	 r	 2.069	 GoodTrial	 allStim	 si
43	 3	 1	 left	 LineStimuli//3.3/stimNo111r15c7v3.3.jpg	 l	 1.672	 GoodTrial	 allStim	 si
44	 3	 1	 left	 LineStimuli//3.8/stimNo98r2c9v3.8.jpg	 l	 1.615	 GoodTrial	 allStim	 si
45	 3	 0	 x	 LineStimuli//4.3/stimNo154r0c0v4.3.jpg	 r	 1.689	 GoodTrial	 allStim	 si
46	 3	 0	 x	 LineStimuli//4.3/stimNo135r0c0v4.3.jpg	 r	 1.659	 GoodTrial	 allStim	 si
47	 3	 1	 left	 LineStimuli//3.8/stimNo105r2c6v3.8.jpg	 l	 1.592	 GoodTrial	 allStim	 si
48	 3	 1	 right	 LineStimuli//3.3/stimNo118r3c16v3.3.jpg	 l	 1.609	 GoodTrial	 allStim	 si
49	 3	 0	 x	 LineStimuli//2.8/stimNo147r0c0v2.8.jpg	 x	 1.127	 GoodTrial	 allStim	 si
50	 3	 0	 x	 LineStimuli//2.3/stimNo155r0c0v2.3.jpg	 r	 2.365	 GoodTrial	 allStim	 si
1	 4	 1	 left	 LineStimuli//3.3/stimNo117r2c5v3.3.jpg	 l	 1.733	 GoodTrial	 allStim	 si
2	 4	 0	 x	 LineStimuli//3.8/stimNo151r0c0v3.8.jpg	 r	 1.703	 GoodTrial	 allStim	 si
3	 4	 1	 right	 LineStimuli//4.3/stimNo81r10c14v4.3.jpg	 l	 1.655	 GoodTrial	 allStim	 si
4	 4	 0	 x	 LineStimuli//4.3/stimNo131r0c0v4.3.jpg	 r	 1.547	 GoodTrial	 allStim	 si
5	 4	 0	 x	 LineStimuli//3.8/stimNo147r0c0v3.8.jpg	 r	 1.563	 GoodTrial	 allStim	 si
6	 4	 1	 right	 LineStimuli//3.3/stimNo97r6c13v3.3.jpg	 l	 1.539	 GoodTrial	 allStim	 si
7	 4	 0	 x	 LineStimuli//2.8/stimNo132r0c0v2.8.jpg	 r	 1.582	 GoodTrial	 allStim	 si
8	 4	 1	 left	 LineStimuli//2.3/stimNo86r8c9v2.3.jpg	 r	 2.215	 GoodTrial	 allStim	 si
9	 4	 1	 right	 LineStimuli//1.8/stimNo99r12c16v1.8.jpg	 l	 2.002	 GoodTrial	 allStim	 si
10	 4	 1	 right	 LineStimuli//1.5/stimNo115r14c18v1.5.jpg	 r	 1.833	 GoodTrial	 allStim	 si
11	 4	 1	 right	 LineStimuli//1.5/stimNo115r14c18v1.5.jpg	 x	 0.728	 EARLY_RESPONSE	 allStim	 si
12	 4	 1	 left	 LineStimuli//1.8/stimNo94r13c8v1.8.jpg	 r	 2.243	 GoodTrial	 allStim	 si
13	 4	 0	 x	 LineStimuli//2.3/stimNo140r0c0v2.3.jpg	 r	 3.176	 GoodTrial	 allStim	 si
14	 4	 1	 right	 LineStimuli//2.8/stimNo85r4c15v2.8.jpg	 l	 1.732	 GoodTrial	 allStim	 si
15	 4	 1	 left	 LineStimuli//3.3/stimNo94r14c9v3.3.jpg	 r	 1.843	 GoodTrial	 allStim	 si
16	 4	 0	 x	 LineStimuli//3.8/stimNo131r0c0v3.8.jpg	 r	 2.184	 GoodTrial	 allStim	 si
17	 4	 1	 right	 LineStimuli//4.3/stimNo118r11c13v4.3.jpg	 l	 1.544	 GoodTrial	 allStim	 si
18	 4	 1	 left	 LineStimuli//4.3/stimNo95r11c9v4.3.jpg	 l	 1.627	 GoodTrial	 allStim	 si
19	 4	 0	 x	 LineStimuli//3.8/stimNo153r0c0v3.8.jpg	 r	 2.430	 GoodTrial	 allStim	 si
20	 4	 0	 x	 LineStimuli//3.3/stimNo138r0c0v3.3.jpg	 r	 1.941	 GoodTrial	 allStim	 si
21	 4	 1	 left	 LineStimuli//2.8/stimNo113r9c5v2.8.jpg	 l	 1.740	 GoodTrial	 allStim	 si
22	 4	 0	 x	 LineStimuli//2.3/stimNo128r0c0v2.3.jpg	 l	 3.225	 GoodTrial	 allStim	 si
23	 4	 1	 right	 LineStimuli//1.8/stimNo92r10c18v1.8.jpg	 r	 2.272	 GoodTrial	 allStim	 si
24	 4	 1	 left	 LineStimuli//1.5/stimNo91r9c3v1.5.jpg	 l	 2.798	 GoodTrial	 allStim	 si
25	 4	 0	 x	 LineStimuli//1.5/stimNo157r0c0v1.5.jpg	 l	 2.727	 GoodTrial	 allStim	 si
26	 4	 1	 left	 LineStimuli//1.8/stimNo103r15c10v1.8.jpg	 r	 3.213	 GoodTrial	 allStim	 si
27	 4	 1	 left	 LineStimuli//2.3/stimNo117r11c8v2.3.jpg	 l	 1.883	 GoodTrial	 allStim	 si
28	 4	 1	 right	 LineStimuli//2.8/stimNo118r5c16v2.8.jpg	 l	 2.091	 GoodTrial	 allStim	 si
29	 4	 0	 x	 LineStimuli//3.3/stimNo145r0c0v3.3.jpg	 r	 2.090	 GoodTrial	 allStim	 si
30	 4	 1	 left	 LineStimuli//3.8/stimNo97r15c9v3.8.jpg	 l	 2.035	 GoodTrial	 allStim	 si
31	 4	 0	 x	 LineStimuli//4.3/stimNo155r0c0v4.3.jpg	 r	 1.674	 GoodTrial	 allStim	 si
32	 4	 0	 x	 LineStimuli//4.3/stimNo127r0c0v4.3.jpg	 r	 1.609	 GoodTrial	 allStim	 si
33	 4	 0	 x	 LineStimuli//3.8/stimNo145r0c0v3.8.jpg	 r	 1.650	 GoodTrial	 allStim	 si
34	 4	 1	 left	 LineStimuli//3.3/stimNo100r3c3v3.3.jpg	 l	 1.610	 GoodTrial	 allStim	 si
35	 4	 1	 right	 LineStimuli//2.8/stimNo106r13c20v2.8.jpg	 l	 1.741	 GoodTrial	 allStim	 si
36	 4	 0	 x	 LineStimuli//2.3/stimNo140r0c0v2.3.jpg	 r	 2.086	 GoodTrial	 allStim	 si
37	 4	 0	 x	 LineStimuli//1.8/stimNo142r0c0v1.8.jpg	 r	 2.858	 GoodTrial	 allStim	 si
38	 4	 1	 left	 LineStimuli//1.5/stimNo89r8c9v1.5.jpg	 r	 3.136	 GoodTrial	 allStim	 si
39	 4	 0	 x	 LineStimuli//1.5/stimNo142r0c0v1.5.jpg	 r	 3.682	 GoodTrial	 allStim	 si
40	 4	 0	 x	 LineStimuli//1.8/stimNo139r0c0v1.8.jpg	 r	 4.124	 GoodTrial	 allStim	 si
41	 4	 0	 x	 LineStimuli//2.3/stimNo159r0c0v2.3.jpg	 r	 2.322	 GoodTrial	 allStim	 si
42	 4	 0	 x	 LineStimuli//2.8/stimNo133r0c0v2.8.jpg	 r	 2.075	 GoodTrial	 allStim	 si
43	 4	 0	 x	 LineStimuli//3.3/stimNo121r0c0v3.3.jpg	 r	 2.548	 GoodTrial	 allStim	 si
44	 4	 0	 x	 LineStimuli//3.8/stimNo124r0c0v3.8.jpg	 r	 2.216	 GoodTrial	 allStim	 si
45	 4	 1	 left	 LineStimuli//4.3/stimNo101r5c5v4.3.jpg	 l	 1.548	 GoodTrial	 allStim	 si
46	 4	 1	 right	 LineStimuli//4.3/stimNo102r10c19v4.3.jpg	 l	 1.478	 GoodTrial	 allStim	 si
47	 4	 1	 right	 LineStimuli//3.8/stimNo87r6c13v3.8.jpg	 l	 1.453	 GoodTrial	 allStim	 si
48	 4	 0	 x	 LineStimuli//3.3/stimNo157r0c0v3.3.jpg	 r	 1.781	 GoodTrial	 allStim	 si
49	 4	 1	 left	 LineStimuli//2.8/stimNo113r9c5v2.8.jpg	 r	 1.704	 GoodTrial	 allStim	 si
50	 4	 1	 right	 LineStimuli//2.3/stimNo109r2c17v2.3.jpg	 l	 1.780	 GoodTrial	 allStim	 si
1	 5	 1	 right	 LineStimuli//3.3/stimNo96r8c18v3.3.jpg	 l	 1.491	 GoodTrial	 allStim	 si
2	 5	 1	 left	 LineStimuli//3.8/stimNo86r7c7v3.8.jpg	 l	 1.506	 GoodTrial	 allStim	 si
3	 5	 1	 left	 LineStimuli//4.3/stimNo88r10c3v4.3.jpg	 l	 1.522	 GoodTrial	 allStim	 si
4	 5	 1	 right	 LineStimuli//4.3/stimNo109r15c15v4.3.jpg	 l	 1.511	 GoodTrial	 allStim	 si
5	 5	 1	 left	 LineStimuli//3.8/stimNo105r2c6v3.8.jpg	 l	 1.515	 GoodTrial	 allStim	 si
6	 5	 0	 x	 LineStimuli//3.3/stimNo142r0c0v3.3.jpg	 r	 1.857	 GoodTrial	 allStim	 si
7	 5	 1	 right	 LineStimuli//2.8/stimNo103r3c19v2.8.jpg	 l	 1.518	 GoodTrial	 allStim	 si
8	 5	 0	 x	 LineStimuli//2.3/stimNo128r0c0v2.3.jpg	 r	 1.787	 GoodTrial	 allStim	 si
9	 5	 1	 left	 LineStimuli//1.8/stimNo105r6c5v1.8.jpg	 r	 1.840	 GoodTrial	 allStim	 si
10	 5	 1	 right	 LineStimuli//1.5/stimNo86r6c16v1.5.jpg	 r	 2.505	 GoodTrial	 allStim	 si
11	 5	 1	 left	 LineStimuli//1.5/stimNo110r7c3v1.5.jpg	 r	 4.053	 GoodTrial	 allStim	 si
12	 5	 1	 right	 LineStimuli//1.8/stimNo100r9c13v1.8.jpg	 l	 2.625	 GoodTrial	 allStim	 si
13	 5	 0	 x	 LineStimuli//2.3/stimNo131r0c0v2.3.jpg	 r	 2.968	 GoodTrial	 allStim	 si
14	 5	 1	 right	 LineStimuli//2.8/stimNo106r13c20v2.8.jpg	 l	 1.626	 GoodTrial	 allStim	 si
15	 5	 1	 left	 LineStimuli//3.3/stimNo93r3c5v3.3.jpg	 l	 1.585	 GoodTrial	 allStim	 si
16	 5	 1	 right	 LineStimuli//3.8/stimNo87r6c13v3.8.jpg	 l	 1.549	 GoodTrial	 allStim	 si
17	 5	 0	 x	 LineStimuli//4.3/stimNo157r0c0v4.3.jpg	 r	 1.825	 GoodTrial	 allStim	 si
18	 5	 1	 right	 LineStimuli//4.3/stimNo92r2c20v4.3.jpg	 l	 1.633	 GoodTrial	 allStim	 si
19	 5	 1	 right	 LineStimuli//3.8/stimNo95r5c21v3.8.jpg	 r	 1.656	 GoodTrial	 allStim	 si
20	 5	 1	 right	 LineStimuli//3.3/stimNo114r11c21v3.3.jpg	 l	 1.835	 GoodTrial	 allStim	 si
21	 5	 1	 left	 LineStimuli//2.8/stimNo89r12c4v2.8.jpg	 l	 1.747	 GoodTrial	 allStim	 si
22	 5	 0	 x	 LineStimuli//2.3/stimNo147r0c0v2.3.jpg	 r	 3.049	 GoodTrial	 allStim	 si
23	 5	 1	 right	 LineStimuli//1.8/stimNo119r3c21v1.8.jpg	 l	 1.937	 GoodTrial	 allStim	 si
24	 5	 0	 x	 LineStimuli//1.5/stimNo121r0c0v1.5.jpg	 r	 2.609	 GoodTrial	 allStim	 si
25	 5	 0	 x	 LineStimuli//1.5/stimNo146r0c0v1.5.jpg	 r	 1.917	 GoodTrial	 allStim	 si
26	 5	 1	 left	 LineStimuli//1.8/stimNo91r14c4v1.8.jpg	 r	 2.169	 GoodTrial	 allStim	 si
27	 5	 0	 x	 LineStimuli//2.3/stimNo146r0c0v2.3.jpg	 r	 2.981	 GoodTrial	 allStim	 si
28	 5	 0	 x	 LineStimuli//2.8/stimNo149r0c0v2.8.jpg	 r	 2.153	 GoodTrial	 allStim	 si
29	 5	 1	 right	 LineStimuli//3.3/stimNo118r3c16v3.3.jpg	 l	 1.613	 GoodTrial	 allStim	 si
30	 5	 1	 left	 LineStimuli//3.8/stimNo108r3c6v3.8.jpg	 l	 1.575	 GoodTrial	 allStim	 si
31	 5	 1	 right	 LineStimuli//4.3/stimNo89r3c17v4.3.jpg	 l	 1.509	 GoodTrial	 allStim	 si
32	 5	 1	 right	 LineStimuli//4.3/stimNo109r15c15v4.3.jpg	 l	 1.736	 GoodTrial	 allStim	 si
33	 5	 1	 left	 LineStimuli//3.8/stimNo115r14c10v3.8.jpg	 l	 1.599	 GoodTrial	 allStim	 si
34	 5	 0	 x	 LineStimuli//3.3/stimNo145r0c0v3.3.jpg	 r	 1.926	 GoodTrial	 allStim	 si
35	 5	 0	 x	 LineStimuli//2.8/stimNo157r0c0v2.8.jpg	 r	 2.268	 GoodTrial	 allStim	 si
36	 5	 0	 x	 LineStimuli//2.3/stimNo133r0c0v2.3.jpg	 r	 2.485	 GoodTrial	 allStim	 si
37	 5	 0	 x	 LineStimuli//1.8/stimNo160r0c0v1.8.jpg	 r	 3.284	 GoodTrial	 allStim	 si
38	 5	 1	 right	 LineStimuli//1.5/stimNo95r6c14v1.5.jpg	 r	 2.273	 GoodTrial	 allStim	 si
39	 5	 1	 left	 LineStimuli//1.5/stimNo87r12c5v1.5.jpg	 r	 3.720	 GoodTrial	 allStim	 si
40	 5	 0	 x	 LineStimuli//1.8/stimNo130r0c0v1.8.jpg	 r	 3.099	 GoodTrial	 allStim	 si
41	 5	 1	 left	 LineStimuli//2.3/stimNo112r3c2v2.3.jpg	 r	 3.842	 GoodTrial	 allStim	 si
42	 5	 1	 left	 LineStimuli//2.8/stimNo113r9c5v2.8.jpg	 l	 4.391	 GoodTrial	 allStim	 si
43	 5	 1	 left	 LineStimuli//3.3/stimNo106r9c9v3.3.jpg	 l	 1.650	 GoodTrial	 allStim	 si
44	 5	 0	 x	 LineStimuli//3.8/stimNo127r0c0v3.8.jpg	 r	 2.838	 GoodTrial	 allStim	 si
45	 5	 0	 x	 LineStimuli//4.3/stimNo129r0c0v4.3.jpg	 r	 1.807	 GoodTrial	 allStim	 si
46	 5	 1	 right	 LineStimuli//4.3/stimNo102r10c19v4.3.jpg	 l	 1.432	 GoodTrial	 allStim	 si
47	 5	 0	 x	 LineStimuli//3.8/stimNo142r0c0v3.8.jpg	 r	 1.591	 GoodTrial	 allStim	 si
48	 5	 0	 x	 LineStimuli//3.3/stimNo148r0c0v3.3.jpg	 r	 1.565	 GoodTrial	 allStim	 si
49	 5	 1	 right	 LineStimuli//2.8/stimNo118r5c16v2.8.jpg	 l	 1.867	 GoodTrial	 allStim	 si
50	 5	 0	 x	 LineStimuli//2.3/stimNo122r0c0v2.3.jpg	 r	 1.555	 GoodTrial	 allStim	 si
1	 6	 0	 x	 LineStimuli//3.3/stimNo126r0c0v3.3.jpg	 r	 1.558	 GoodTrial	 allStim	 si
2	 6	 0	 x	 LineStimuli//3.8/stimNo139r0c0v3.8.jpg	 r	 1.489	 GoodTrial	 allStim	 si
3	 6	 0	 x	 LineStimuli//4.3/stimNo133r0c0v4.3.jpg	 r	 1.474	 GoodTrial	 allStim	 si
4	 6	 1	 left	 LineStimuli//4.3/stimNo111r10c9v4.3.jpg	 l	 1.700	 GoodTrial	 allStim	 si
5	 6	 0	 x	 LineStimuli//3.8/stimNo152r0c0v3.8.jpg	 r	 1.456	 GoodTrial	 allStim	 si
6	 6	 1	 left	 LineStimuli//3.3/stimNo103r6c6v3.3.jpg	 l	 1.496	 GoodTrial	 allStim	 si
7	 6	 1	 right	 LineStimuli//2.8/stimNo114r8c19v2.8.jpg	 l	 1.596	 GoodTrial	 allStim	 si
8	 6	 0	 x	 LineStimuli//2.3/stimNo123r0c0v2.3.jpg	 r	 1.596	 GoodTrial	 allStim	 si
9	 6	 0	 x	 LineStimuli//1.8/stimNo147r0c0v1.8.jpg	 r	 1.738	 GoodTrial	 allStim	 si
10	 6	 0	 x	 LineStimuli//1.5/stimNo121r0c0v1.5.jpg	 r	 3.368	 GoodTrial	 allStim	 si
11	 6	 0	 x	 LineStimuli//1.5/stimNo130r0c0v1.5.jpg	 r	 1.643	 GoodTrial	 allStim	 si
12	 6	 0	 x	 LineStimuli//1.8/stimNo157r0c0v1.8.jpg	 r	 3.970	 GoodTrial	 allStim	 si
13	 6	 1	 left	 LineStimuli//2.3/stimNo114r7c8v2.3.jpg	 r	 2.146	 GoodTrial	 allStim	 si
14	 6	 1	 right	 LineStimuli//2.8/stimNo85r4c15v2.8.jpg	 l	 1.583	 GoodTrial	 allStim	 si
15	 6	 1	 right	 LineStimuli//3.3/stimNo89r5c21v3.3.jpg	 l	 1.614	 GoodTrial	 allStim	 si
16	 6	 0	 x	 LineStimuli//3.8/stimNo134r0c0v3.8.jpg	 r	 1.811	 GoodTrial	 allStim	 si
17	 6	 0	 x	 LineStimuli//4.3/stimNo131r0c0v4.3.jpg	 r	 1.792	 GoodTrial	 allStim	 si
18	 6	 0	 x	 LineStimuli//4.3/stimNo152r0c0v4.3.jpg	 r	 1.801	 GoodTrial	 allStim	 si
19	 6	 1	 left	 LineStimuli//3.8/stimNo104r12c8v3.8.jpg	 l	 1.534	 GoodTrial	 allStim	 si
20	 6	 0	 x	 LineStimuli//3.3/stimNo133r0c0v3.3.jpg	 r	 1.744	 GoodTrial	 allStim	 si
21	 6	 0	 x	 LineStimuli//2.8/stimNo136r0c0v2.8.jpg	 r	 2.154	 GoodTrial	 allStim	 si
22	 6	 1	 right	 LineStimuli//2.3/stimNo107r11c15v2.3.jpg	 l	 1.544	 GoodTrial	 allStim	 si
23	 6	 0	 x	 LineStimuli//1.8/stimNo128r0c0v1.8.jpg	 r	 2.944	 GoodTrial	 allStim	 si
24	 6	 1	 right	 LineStimuli//1.5/stimNo100r6c20v1.5.jpg	 l	 1.920	 GoodTrial	 allStim	 si
25	 6	 0	 x	 LineStimuli//1.5/stimNo155r0c0v1.5.jpg	 r	 4.650	 GoodTrial	 allStim	 si
26	 6	 0	 x	 LineStimuli//1.8/stimNo123r0c0v1.8.jpg	 r	 3.742	 GoodTrial	 allStim	 si
27	 6	 0	 x	 LineStimuli//2.3/stimNo134r0c0v2.3.jpg	 r	 2.029	 GoodTrial	 allStim	 si
28	 6	 0	 x	 LineStimuli//2.8/stimNo150r0c0v2.8.jpg	 r	 2.665	 GoodTrial	 allStim	 si
29	 6	 1	 left	 LineStimuli//3.3/stimNo81r15c8v3.3.jpg	 l	 1.664	 GoodTrial	 allStim	 si
30	 6	 0	 x	 LineStimuli//3.8/stimNo147r0c0v3.8.jpg	 r	 1.949	 GoodTrial	 allStim	 si
31	 6	 1	 left	 LineStimuli//4.3/stimNo95r11c9v4.3.jpg	 l	 1.625	 GoodTrial	 allStim	 si
32	 6	 0	 x	 LineStimuli//4.3/stimNo151r0c0v4.3.jpg	 r	 1.826	 GoodTrial	 allStim	 si
33	 6	 1	 left	 LineStimuli//3.8/stimNo119r9c8v3.8.jpg	 l	 1.643	 GoodTrial	 allStim	 si
34	 6	 0	 x	 LineStimuli//3.3/stimNo158r0c0v3.3.jpg	 r	 1.692	 GoodTrial	 allStim	 si
35	 6	 0	 x	 LineStimuli//2.8/stimNo152r0c0v2.8.jpg	 l	 1.785	 GoodTrial	 allStim	 si
36	 6	 0	 x	 LineStimuli//2.3/stimNo132r0c0v2.3.jpg	 r	 2.168	 GoodTrial	 allStim	 si
37	 6	 0	 x	 LineStimuli//1.8/stimNo123r0c0v1.8.jpg	 r	 1.907	 GoodTrial	 allStim	 si
38	 6	 1	 right	 LineStimuli//1.5/stimNo100r6c20v1.5.jpg	 l	 1.875	 GoodTrial	 allStim	 si
39	 6	 1	 right	 LineStimuli//1.5/stimNo93r14c18v1.5.jpg	 r	 2.998	 GoodTrial	 allStim	 si
40	 6	 0	 x	 LineStimuli//1.8/stimNo147r0c0v1.8.jpg	 r	 3.039	 GoodTrial	 allStim	 si
41	 6	 1	 left	 LineStimuli//2.3/stimNo116r2c2v2.3.jpg	 l	 2.094	 GoodTrial	 allStim	 si
42	 6	 0	 x	 LineStimuli//2.8/stimNo154r0c0v2.8.jpg	 r	 2.768	 GoodTrial	 allStim	 si
43	 6	 0	 x	 LineStimuli//3.3/stimNo139r0c0v3.3.jpg	 r	 2.069	 GoodTrial	 allStim	 si
44	 6	 0	 x	 LineStimuli//3.8/stimNo135r0c0v3.8.jpg	 r	 3.025	 GoodTrial	 allStim	 si
45	 6	 0	 x	 LineStimuli//4.3/stimNo132r0c0v4.3.jpg	 r	 1.795	 GoodTrial	 allStim	 si
46	 6	 0	 x	 LineStimuli//4.3/stimNo147r0c0v4.3.jpg	 r	 1.988	 GoodTrial	 allStim	 si
47	 6	 1	 right	 LineStimuli//3.8/stimNo92r6c21v3.8.jpg	 l	 1.615	 GoodTrial	 allStim	 si
48	 6	 1	 left	 LineStimuli//3.3/stimNo111r15c7v3.3.jpg	 l	 1.601	 GoodTrial	 allStim	 si
49	 6	 1	 left	 LineStimuli//2.8/stimNo113r9c5v2.8.jpg	 r	 1.731	 GoodTrial	 allStim	 si
50	 6	 1	 right	 LineStimuli//2.3/stimNo85r4c15v2.3.jpg	 l	 1.857	 GoodTrial	 allStim	 si
1	 7	 1	 left	 LineStimuli//3.3/stimNo90r2c9v3.3.jpg	 r	 1.591	 GoodTrial	 allStim	 si
2	 7	 1	 right	 LineStimuli//3.8/stimNo114r10c14v3.8.jpg	 l	 2.029	 GoodTrial	 allStim	 si
3	 7	 1	 left	 LineStimuli//4.3/stimNo86r7c3v4.3.jpg	 l	 1.545	 GoodTrial	 allStim	 si
4	 7	 1	 right	 LineStimuli//4.3/stimNo99r14c18v4.3.jpg	 x	 0.624	 EARLY_RESPONSE	 allStim	 si
5	 7	 0	 x	 LineStimuli//3.8/stimNo148r0c0v3.8.jpg	 r	 1.797	 GoodTrial	 allStim	 si
6	 7	 0	 x	 LineStimuli//3.3/stimNo159r0c0v3.3.jpg	 r	 1.599	 GoodTrial	 allStim	 si
7	 7	 0	 x	 LineStimuli//2.8/stimNo152r0c0v2.8.jpg	 r	 1.935	 GoodTrial	 allStim	 si
8	 7	 1	 left	 LineStimuli//2.3/stimNo108r15c6v2.3.jpg	 l	 1.693	 GoodTrial	 allStim	 si
9	 7	 0	 x	 LineStimuli//1.8/stimNo142r0c0v1.8.jpg	 r	 1.693	 GoodTrial	 allStim	 si
10	 7	 0	 x	 LineStimuli//1.5/stimNo160r0c0v1.5.jpg	 r	 1.817	 GoodTrial	 allStim	 si
11	 7	 1	 right	 LineStimuli//1.5/stimNo115r14c18v1.5.jpg	 r	 1.795	 GoodTrial	 allStim	 si
12	 7	 1	 left	 LineStimuli//1.8/stimNo86r14c4v1.8.jpg	 l	 1.931	 GoodTrial	 allStim	 si
13	 7	 0	 x	 LineStimuli//2.3/stimNo139r0c0v2.3.jpg	 r	 2.099	 GoodTrial	 allStim	 si
14	 7	 1	 left	 LineStimuli//2.8/stimNo87r11c8v2.8.jpg	 l	 1.807	 GoodTrial	 allStim	 si
15	 7	 1	 right	 LineStimuli//3.3/stimNo96r8c18v3.3.jpg	 l	 2.463	 GoodTrial	 allStim	 si
16	 7	 1	 right	 LineStimuli//3.8/stimNo90r8c17v3.8.jpg	 l	 1.551	 GoodTrial	 allStim	 si
17	 7	 0	 x	 LineStimuli//4.3/stimNo142r0c0v4.3.jpg	 r	 1.769	 GoodTrial	 allStim	 si
18	 7	 0	 x	 LineStimuli//4.3/stimNo127r0c0v4.3.jpg	 r	 2.384	 GoodTrial	 allStim	 si
19	 7	 0	 x	 LineStimuli//3.8/stimNo145r0c0v3.8.jpg	 r	 1.999	 GoodTrial	 allStim	 si
20	 7	 0	 x	 LineStimuli//3.3/stimNo150r0c0v3.3.jpg	 r	 1.691	 GoodTrial	 allStim	 si
21	 7	 0	 x	 LineStimuli//2.8/stimNo138r0c0v2.8.jpg	 r	 1.938	 GoodTrial	 allStim	 si
22	 7	 0	 x	 LineStimuli//2.3/stimNo154r0c0v2.3.jpg	 r	 2.189	 GoodTrial	 allStim	 si
23	 7	 0	 x	 LineStimuli//1.8/stimNo125r0c0v1.8.jpg	 r	 2.456	 GoodTrial	 allStim	 si
24	 7	 0	 x	 LineStimuli//1.5/stimNo147r0c0v1.5.jpg	 r	 2.250	 GoodTrial	 allStim	 si
25	 7	 1	 left	 LineStimuli//1.5/stimNo109r8c6v1.5.jpg	 r	 3.486	 GoodTrial	 allStim	 si
26	 7	 0	 x	 LineStimuli//1.8/stimNo156r0c0v1.8.jpg	 r	 3.114	 GoodTrial	 allStim	 si
27	 7	 1	 left	 LineStimuli//2.3/stimNo117r11c8v2.3.jpg	 l	 1.665	 GoodTrial	 allStim	 si
28	 7	 1	 right	 LineStimuli//2.8/stimNo118r5c16v2.8.jpg	 l	 1.752	 GoodTrial	 allStim	 si
29	 7	 0	 x	 LineStimuli//3.3/stimNo159r0c0v3.3.jpg	 r	 2.053	 GoodTrial	 allStim	 si
30	 7	 0	 x	 LineStimuli//3.8/stimNo158r0c0v3.8.jpg	 r	 1.872	 GoodTrial	 allStim	 si
31	 7	 1	 right	 LineStimuli//4.3/stimNo117r10c21v4.3.jpg	 l	 1.555	 GoodTrial	 allStim	 si
32	 7	 1	 left	 LineStimuli//4.3/stimNo105r14c6v4.3.jpg	 l	 1.616	 GoodTrial	 allStim	 si
33	 7	 0	 x	 LineStimuli//3.8/stimNo140r0c0v3.8.jpg	 r	 1.704	 GoodTrial	 allStim	 si
34	 7	 1	 left	 LineStimuli//3.3/stimNo94r14c9v3.3.jpg	 l	 1.586	 GoodTrial	 allStim	 si
35	 7	 1	 right	 LineStimuli//2.8/stimNo112r13c17v2.8.jpg	 l	 1.592	 GoodTrial	 allStim	 si
36	 7	 1	 left	 LineStimuli//2.3/stimNo104r2c4v2.3.jpg	 l	 1.640	 GoodTrial	 allStim	 si
37	 7	 1	 right	 LineStimuli//1.8/stimNo119r3c21v1.8.jpg	 l	 2.610	 GoodTrial	 allStim	 si
38	 7	 0	 x	 LineStimuli//1.5/stimNo131r0c0v1.5.jpg	 r	 2.224	 GoodTrial	 allStim	 si
39	 7	 1	 left	 LineStimuli//1.5/stimNo97r15c6v1.5.jpg	 r	 2.748	 GoodTrial	 allStim	 si
40	 7	 1	 right	 LineStimuli//1.8/stimNo84r11c21v1.8.jpg	 l	 2.192	 GoodTrial	 allStim	 si
41	 7	 1	 left	 LineStimuli//2.3/stimNo94r8c9v2.3.jpg	 l	 1.832	 GoodTrial	 allStim	 si
42	 7	 0	 x	 LineStimuli//2.8/stimNo158r0c0v2.8.jpg	 r	 2.542	 GoodTrial	 allStim	 si
43	 7	 0	 x	 LineStimuli//3.3/stimNo121r0c0v3.3.jpg	 r	 1.958	 GoodTrial	 allStim	 si
44	 7	 1	 left	 LineStimuli//3.8/stimNo120r5c3v3.8.jpg	 l	 1.604	 GoodTrial	 allStim	 si
45	 7	 0	 x	 LineStimuli//4.3/stimNo135r0c0v4.3.jpg	 r	 1.764	 GoodTrial	 allStim	 si
46	 7	 1	 left	 LineStimuli//4.3/stimNo108r5c8v4.3.jpg	 l	 1.552	 GoodTrial	 allStim	 si
47	 7	 1	 left	 LineStimuli//3.8/stimNo97r15c9v3.8.jpg	 l	 1.612	 GoodTrial	 allStim	 si
48	 7	 1	 left	 LineStimuli//3.3/stimNo90r2c9v3.3.jpg	 l	 2.100	 GoodTrial	 allStim	 si
49	 7	 0	 x	 LineStimuli//2.8/stimNo146r0c0v2.8.jpg	 r	 2.088	 GoodTrial	 allStim	 si
50	 7	 1	 left	 LineStimuli//2.3/stimNo117r11c8v2.3.jpg	 l	 1.626	 GoodTrial	 allStim	 si
