Trial	Block	Target_pr	Target_side	Name	Key	RT	Message	Block_Type	Condition
1	 1	 1	 left	 LineStimuli//3.3/stimNo117r2c5v3.3.jpg	 l	 1.895	 GoodTrial	 allStim	 si
2	 1	 1	 left	 LineStimuli//3.8/stimNo105r2c6v3.8.jpg	 l	 1.676	 GoodTrial	 allStim	 si
3	 1	 1	 right	 LineStimuli//4.3/stimNo99r14c18v4.3.jpg	 l	 1.792	 GoodTrial	 allStim	 si
4	 1	 1	 left	 LineStimuli//4.3/stimNo100r8c3v4.3.jpg	 l	 1.618	 GoodTrial	 allStim	 si
5	 1	 1	 right	 LineStimuli//3.8/stimNo114r10c14v3.8.jpg	 l	 1.663	 GoodTrial	 allStim	 si
6	 1	 0	 x	 LineStimuli//3.3/stimNo151r0c0v3.3.jpg	 r	 2.112	 GoodTrial	 allStim	 si
7	 1	 1	 right	 LineStimuli//2.8/stimNo109r6c18v2.8.jpg	 l	 1.936	 GoodTrial	 allStim	 si
8	 1	 0	 x	 LineStimuli//2.3/stimNo123r0c0v2.3.jpg	 r	 3.276	 GoodTrial	 allStim	 si
9	 1	 1	 right	 LineStimuli//1.8/stimNo82r7c18v1.8.jpg	 l	 3.464	 GoodTrial	 allStim	 si
10	 1	 1	 right	 LineStimuli//1.5/stimNo107r2c19v1.5.jpg	 r	 4.438	 GoodTrial	 allStim	 si
11	 1	 0	 x	 LineStimuli//1.5/stimNo144r0c0v1.5.jpg	 r	 5.769	 GoodTrial	 allStim	 si
12	 1	 1	 left	 LineStimuli//1.8/stimNo96r13c2v1.8.jpg	 l	 4.134	 GoodTrial	 allStim	 si
13	 1	 1	 left	 LineStimuli//2.3/stimNo113r3c8v2.3.jpg	 l	 2.408	 GoodTrial	 allStim	 si
14	 1	 1	 left	 LineStimuli//2.8/stimNo108r13c6v2.8.jpg	 l	 1.938	 GoodTrial	 allStim	 si
15	 1	 1	 right	 LineStimuli//3.3/stimNo101r7c16v3.3.jpg	 l	 1.706	 GoodTrial	 allStim	 si
16	 1	 0	 x	 LineStimuli//3.8/stimNo157r0c0v3.8.jpg	 r	 3.212	 GoodTrial	 allStim	 si
17	 1	 1	 left	 LineStimuli//4.3/stimNo107r2c8v4.3.jpg	 l	 1.674	 GoodTrial	 allStim	 si
18	 1	 0	 x	 LineStimuli//4.3/stimNo143r0c0v4.3.jpg	 l	 2.374	 GoodTrial	 allStim	 si
19	 1	 0	 x	 LineStimuli//3.8/stimNo159r0c0v3.8.jpg	 r	 3.138	 GoodTrial	 allStim	 si
20	 1	 1	 left	 LineStimuli//3.3/stimNo90r2c9v3.3.jpg	 l	 1.642	 GoodTrial	 allStim	 si
21	 1	 0	 x	 LineStimuli//2.8/stimNo125r0c0v2.8.jpg	 r	 3.009	 GoodTrial	 allStim	 si
22	 1	 1	 right	 LineStimuli//2.3/stimNo91r11c20v2.3.jpg	 l	 2.096	 GoodTrial	 allStim	 si
23	 1	 1	 left	 LineStimuli//1.8/stimNo86r14c4v1.8.jpg	 l	 4.686	 GoodTrial	 allStim	 si
24	 1	 1	 left	 LineStimuli//1.5/stimNo87r12c5v1.5.jpg	 l	 2.161	 GoodTrial	 allStim	 si
25	 1	 1	 right	 LineStimuli//1.5/stimNo103r13c17v1.5.jpg	 r	 3.869	 GoodTrial	 allStim	 si
26	 1	 0	 x	 LineStimuli//1.8/stimNo143r0c0v1.8.jpg	 r	 7.008	 GoodTrial	 allStim	 si
27	 1	 1	 left	 LineStimuli//2.3/stimNo106r9c9v2.3.jpg	 l	 1.908	 GoodTrial	 allStim	 si
28	 1	 1	 left	 LineStimuli//2.8/stimNo96r6c9v2.8.jpg	 l	 1.764	 GoodTrial	 allStim	 si
29	 1	 0	 x	 LineStimuli//3.3/stimNo156r0c0v3.3.jpg	 r	 2.962	 GoodTrial	 allStim	 si
30	 1	 0	 x	 LineStimuli//3.8/stimNo140r0c0v3.8.jpg	 r	 3.188	 GoodTrial	 allStim	 si
31	 1	 0	 x	 LineStimuli//4.3/stimNo154r0c0v4.3.jpg	 r	 1.775	 GoodTrial	 allStim	 si
32	 1	 0	 x	 LineStimuli//4.3/stimNo123r0c0v4.3.jpg	 r	 2.252	 GoodTrial	 allStim	 si
33	 1	 0	 x	 LineStimuli//3.8/stimNo121r0c0v3.8.jpg	 r	 3.005	 GoodTrial	 allStim	 si
34	 1	 0	 x	 LineStimuli//3.3/stimNo134r0c0v3.3.jpg	 r	 2.563	 GoodTrial	 allStim	 si
35	 1	 0	 x	 LineStimuli//2.8/stimNo151r0c0v2.8.jpg	 r	 2.433	 GoodTrial	 allStim	 si
36	 1	 0	 x	 LineStimuli//2.3/stimNo131r0c0v2.3.jpg	 r	 3.081	 GoodTrial	 allStim	 si
37	 1	 0	 x	 LineStimuli//1.8/stimNo156r0c0v1.8.jpg	 r	 3.302	 GoodTrial	 allStim	 si
38	 1	 1	 left	 LineStimuli//1.5/stimNo102r7c6v1.5.jpg	 l	 2.377	 GoodTrial	 allStim	 si
39	 1	 0	 x	 LineStimuli//1.5/stimNo146r0c0v1.5.jpg	 r	 3.709	 GoodTrial	 allStim	 si
40	 1	 1	 right	 LineStimuli//1.8/stimNo82r7c18v1.8.jpg	 l	 1.939	 GoodTrial	 allStim	 si
41	 1	 0	 x	 LineStimuli//2.3/stimNo146r0c0v2.3.jpg	 r	 3.737	 GoodTrial	 allStim	 si
42	 1	 1	 left	 LineStimuli//2.8/stimNo83r12c4v2.8.jpg	 l	 1.989	 GoodTrial	 allStim	 si
43	 1	 1	 left	 LineStimuli//3.3/stimNo103r6c6v3.3.jpg	 l	 1.553	 GoodTrial	 allStim	 si
44	 1	 0	 x	 LineStimuli//3.8/stimNo139r0c0v3.8.jpg	 r	 2.393	 GoodTrial	 allStim	 si
45	 1	 0	 x	 LineStimuli//4.3/stimNo129r0c0v4.3.jpg	 r	 2.940	 GoodTrial	 allStim	 si
46	 1	 1	 left	 LineStimuli//4.3/stimNo86r7c3v4.3.jpg	 l	 1.637	 GoodTrial	 allStim	 si
47	 1	 0	 x	 LineStimuli//3.8/stimNo144r0c0v3.8.jpg	 r	 2.566	 GoodTrial	 allStim	 si
48	 1	 0	 x	 LineStimuli//3.3/stimNo154r0c0v3.3.jpg	 r	 3.949	 GoodTrial	 allStim	 si
49	 1	 0	 x	 LineStimuli//2.8/stimNo123r0c0v2.8.jpg	 r	 3.130	 GoodTrial	 allStim	 si
50	 1	 1	 left	 LineStimuli//2.3/stimNo115r7c3v2.3.jpg	 x	 1.817	 GoodTrial	 allStim	 si
1	 2	 1	 left	 LineStimuli//3.3/stimNo94r14c9v3.3.jpg	 l	 1.890	 GoodTrial	 allStim	 si
2	 2	 0	 x	 LineStimuli//3.8/stimNo146r0c0v3.8.jpg	 r	 3.015	 GoodTrial	 allStim	 si
3	 2	 1	 right	 LineStimuli//4.3/stimNo114r10c15v4.3.jpg	 l	 1.652	 GoodTrial	 allStim	 si
4	 2	 1	 right	 LineStimuli//4.3/stimNo94r12c13v4.3.jpg	 l	 1.763	 GoodTrial	 allStim	 si
5	 2	 1	 left	 LineStimuli//3.8/stimNo120r5c3v3.8.jpg	 l	 1.615	 GoodTrial	 allStim	 si
6	 2	 0	 x	 LineStimuli//3.3/stimNo124r0c0v3.3.jpg	 r	 3.031	 GoodTrial	 allStim	 si
7	 2	 0	 x	 LineStimuli//2.8/stimNo141r0c0v2.8.jpg	 r	 2.561	 GoodTrial	 allStim	 si
8	 2	 0	 x	 LineStimuli//2.3/stimNo158r0c0v2.3.jpg	 r	 1.761	 GoodTrial	 allStim	 si
9	 2	 0	 x	 LineStimuli//1.8/stimNo130r0c0v1.8.jpg	 r	 3.093	 GoodTrial	 allStim	 si
10	 2	 1	 right	 LineStimuli//1.5/stimNo86r6c16v1.5.jpg	 l	 5.116	 GoodTrial	 allStim	 si
11	 2	 0	 x	 LineStimuli//1.5/stimNo150r0c0v1.5.jpg	 r	 8.389	 GoodTrial	 allStim	 si
12	 2	 1	 right	 LineStimuli//1.8/stimNo84r11c21v1.8.jpg	 l	 2.029	 GoodTrial	 allStim	 si
13	 2	 0	 x	 LineStimuli//2.3/stimNo132r0c0v2.3.jpg	 r	 4.210	 GoodTrial	 allStim	 si
14	 2	 1	 left	 LineStimuli//2.8/stimNo97r11c4v2.8.jpg	 l	 1.703	 GoodTrial	 allStim	 si
15	 2	 1	 right	 LineStimuli//3.3/stimNo116r10c14v3.3.jpg	 l	 1.678	 GoodTrial	 allStim	 si
16	 2	 0	 x	 LineStimuli//3.8/stimNo137r0c0v3.8.jpg	 r	 3.511	 GoodTrial	 allStim	 si
17	 2	 0	 x	 LineStimuli//4.3/stimNo143r0c0v4.3.jpg	 r	 3.057	 GoodTrial	 allStim	 si
18	 2	 0	 x	 LineStimuli//4.3/stimNo160r0c0v4.3.jpg	 r	 2.917	 GoodTrial	 allStim	 si
19	 2	 1	 right	 LineStimuli//3.8/stimNo96r2c13v3.8.jpg	 l	 1.814	 GoodTrial	 allStim	 si
20	 2	 0	 x	 LineStimuli//3.3/stimNo124r0c0v3.3.jpg	 r	 3.198	 GoodTrial	 allStim	 si
21	 2	 1	 left	 LineStimuli//2.8/stimNo104r8c6v2.8.jpg	 l	 1.719	 GoodTrial	 allStim	 si
22	 2	 1	 right	 LineStimuli//2.3/stimNo103r11c21v2.3.jpg	 l	 1.873	 GoodTrial	 allStim	 si
23	 2	 0	 x	 LineStimuli//1.8/stimNo126r0c0v1.8.jpg	 r	 3.644	 GoodTrial	 allStim	 si
24	 2	 0	 x	 LineStimuli//1.5/stimNo149r0c0v1.5.jpg	 r	 4.968	 GoodTrial	 allStim	 si
25	 2	 1	 left	 LineStimuli//1.5/stimNo120r14c2v1.5.jpg	 r	 4.066	 GoodTrial	 allStim	 si
26	 2	 0	 x	 LineStimuli//1.8/stimNo131r0c0v1.8.jpg	 r	 5.196	 GoodTrial	 allStim	 si
27	 2	 1	 left	 LineStimuli//2.3/stimNo81r4c3v2.3.jpg	 l	 2.064	 GoodTrial	 allStim	 si
28	 2	 0	 x	 LineStimuli//2.8/stimNo157r0c0v2.8.jpg	 r	 5.376	 GoodTrial	 allStim	 si
29	 2	 1	 right	 LineStimuli//3.3/stimNo118r3c16v3.3.jpg	 l	 1.809	 GoodTrial	 allStim	 si
30	 2	 0	 x	 LineStimuli//3.8/stimNo130r0c0v3.8.jpg	 r	 3.376	 GoodTrial	 allStim	 si
31	 2	 0	 x	 LineStimuli//4.3/stimNo141r0c0v4.3.jpg	 r	 3.380	 GoodTrial	 allStim	 si
32	 2	 1	 right	 LineStimuli//4.3/stimNo115r10c18v4.3.jpg	 l	 1.671	 GoodTrial	 allStim	 si
33	 2	 0	 x	 LineStimuli//3.8/stimNo152r0c0v3.8.jpg	 r	 3.071	 GoodTrial	 allStim	 si
34	 2	 1	 left	 LineStimuli//3.3/stimNo92r10c7v3.3.jpg	 l	 1.888	 GoodTrial	 allStim	 si
35	 2	 1	 left	 LineStimuli//2.8/stimNo97r11c4v2.8.jpg	 l	 1.670	 GoodTrial	 allStim	 si
36	 2	 0	 x	 LineStimuli//2.3/stimNo130r0c0v2.3.jpg	 r	 4.528	 GoodTrial	 allStim	 si
37	 2	 1	 right	 LineStimuli//1.8/stimNo93r3c17v1.8.jpg	 l	 2.952	 GoodTrial	 allStim	 si
38	 2	 0	 x	 LineStimuli//1.5/stimNo122r0c0v1.5.jpg	 r	 4.104	 GoodTrial	 allStim	 si
39	 2	 0	 x	 LineStimuli//1.5/stimNo122r0c0v1.5.jpg	 r	 4.777	 GoodTrial	 allStim	 si
40	 2	 0	 x	 LineStimuli//1.8/stimNo136r0c0v1.8.jpg	 r	 3.506	 GoodTrial	 allStim	 si
41	 2	 1	 left	 LineStimuli//2.3/stimNo95r13c9v2.3.jpg	 l	 2.048	 GoodTrial	 allStim	 si
42	 2	 1	 left	 LineStimuli//2.8/stimNo105r5c4v2.8.jpg	 l	 1.640	 GoodTrial	 allStim	 si
43	 2	 0	 x	 LineStimuli//3.3/stimNo137r0c0v3.3.jpg	 r	 4.056	 GoodTrial	 allStim	 si
44	 2	 0	 x	 LineStimuli//3.8/stimNo121r0c0v3.8.jpg	 r	 4.534	 GoodTrial	 allStim	 si
45	 2	 1	 left	 LineStimuli//4.3/stimNo108r5c8v4.3.jpg	 l	 1.677	 GoodTrial	 allStim	 si
46	 2	 1	 left	 LineStimuli//4.3/stimNo100r8c3v4.3.jpg	 l	 1.632	 GoodTrial	 allStim	 si
47	 2	 0	 x	 LineStimuli//3.8/stimNo134r0c0v3.8.jpg	 r	 2.573	 GoodTrial	 allStim	 si
48	 2	 0	 x	 LineStimuli//3.3/stimNo121r0c0v3.3.jpg	 r	 3.624	 GoodTrial	 allStim	 si
49	 2	 1	 left	 LineStimuli//2.8/stimNo87r11c8v2.8.jpg	 l	 3.145	 GoodTrial	 allStim	 si
50	 2	 1	 right	 LineStimuli//2.3/stimNo103r11c21v2.3.jpg	 l	 1.872	 GoodTrial	 allStim	 si
1	 3	 0	 x	 LineStimuli//3.3/stimNo145r0c0v3.3.jpg	 r	 2.357	 GoodTrial	 allStim	 si
2	 3	 1	 right	 LineStimuli//3.8/stimNo111r15c20v3.8.jpg	 l	 1.711	 GoodTrial	 allStim	 si
3	 3	 0	 x	 LineStimuli//4.3/stimNo133r0c0v4.3.jpg	 r	 2.505	 GoodTrial	 allStim	 si
4	 3	 1	 left	 LineStimuli//4.3/stimNo111r10c9v4.3.jpg	 l	 1.556	 GoodTrial	 allStim	 si
5	 3	 0	 x	 LineStimuli//3.8/stimNo125r0c0v3.8.jpg	 r	 2.961	 GoodTrial	 allStim	 si
6	 3	 0	 x	 LineStimuli//3.3/stimNo132r0c0v3.3.jpg	 r	 2.889	 GoodTrial	 allStim	 si
7	 3	 1	 right	 LineStimuli//2.8/stimNo81r8c14v2.8.jpg	 l	 1.687	 GoodTrial	 allStim	 si
8	 3	 0	 x	 LineStimuli//2.3/stimNo123r0c0v2.3.jpg	 r	 3.687	 GoodTrial	 allStim	 si
9	 3	 1	 right	 LineStimuli//1.8/stimNo117r10c16v1.8.jpg	 l	 2.517	 GoodTrial	 allStim	 si
10	 3	 0	 x	 LineStimuli//1.5/stimNo148r0c0v1.5.jpg	 r	 3.696	 GoodTrial	 allStim	 si
11	 3	 1	 left	 LineStimuli//1.5/stimNo117r7c8v1.5.jpg	 r	 2.931	 GoodTrial	 allStim	 si
12	 3	 1	 right	 LineStimuli//1.8/stimNo118r11c15v1.8.jpg	 l	 2.017	 GoodTrial	 allStim	 si
13	 3	 1	 right	 LineStimuli//2.3/stimNo105r14c14v2.3.jpg	 l	 1.927	 GoodTrial	 allStim	 si
14	 3	 0	 x	 LineStimuli//2.8/stimNo139r0c0v2.8.jpg	 r	 4.605	 GoodTrial	 allStim	 si
15	 3	 1	 left	 LineStimuli//3.3/stimNo81r15c8v3.3.jpg	 l	 1.931	 GoodTrial	 allStim	 si
16	 3	 0	 x	 LineStimuli//3.8/stimNo143r0c0v3.8.jpg	 r	 3.065	 GoodTrial	 allStim	 si
17	 3	 1	 left	 LineStimuli//4.3/stimNo101r5c5v4.3.jpg	 l	 1.553	 GoodTrial	 allStim	 si
18	 3	 1	 right	 LineStimuli//4.3/stimNo96r4c19v4.3.jpg	 l	 1.697	 GoodTrial	 allStim	 si
19	 3	 1	 left	 LineStimuli//3.8/stimNo89r10c7v3.8.jpg	 l	 1.583	 GoodTrial	 allStim	 si
20	 3	 1	 right	 LineStimuli//3.3/stimNo107r2c17v3.3.jpg	 l	 2.071	 GoodTrial	 allStim	 si
21	 3	 0	 x	 LineStimuli//2.8/stimNo153r0c0v2.8.jpg	 r	 2.805	 GoodTrial	 allStim	 si
22	 3	 0	 x	 LineStimuli//2.3/stimNo144r0c0v2.3.jpg	 r	 3.134	 GoodTrial	 allStim	 si
23	 3	 1	 right	 LineStimuli//1.8/stimNo112r6c15v1.8.jpg	 r	 2.612	 GoodTrial	 allStim	 si
24	 3	 0	 x	 LineStimuli//1.5/stimNo148r0c0v1.5.jpg	 r	 7.074	 GoodTrial	 allStim	 si
25	 3	 1	 right	 LineStimuli//1.5/stimNo84r3c18v1.5.jpg	 l	 5.814	 GoodTrial	 allStim	 si
26	 3	 1	 right	 LineStimuli//1.8/stimNo92r10c18v1.8.jpg	 l	 2.802	 GoodTrial	 allStim	 si
27	 3	 1	 right	 LineStimuli//2.3/stimNo92r10c17v2.3.jpg	 l	 2.080	 GoodTrial	 allStim	 si
28	 3	 0	 x	 LineStimuli//2.8/stimNo134r0c0v2.8.jpg	 r	 4.933	 GoodTrial	 allStim	 si
29	 3	 1	 right	 LineStimuli//3.3/stimNo97r6c13v3.3.jpg	 l	 1.672	 GoodTrial	 allStim	 si
30	 3	 1	 right	 LineStimuli//3.8/stimNo95r5c21v3.8.jpg	 l	 3.882	 GoodTrial	 allStim	 si
31	 3	 1	 right	 LineStimuli//4.3/stimNo82r7c18v4.3.jpg	 l	 1.630	 GoodTrial	 allStim	 si
32	 3	 0	 x	 LineStimuli//4.3/stimNo144r0c0v4.3.jpg	 r	 3.195	 GoodTrial	 allStim	 si
33	 3	 0	 x	 LineStimuli//3.8/stimNo125r0c0v3.8.jpg	 r	 2.665	 GoodTrial	 allStim	 si
34	 3	 0	 x	 LineStimuli//3.3/stimNo141r0c0v3.3.jpg	 r	 2.397	 GoodTrial	 allStim	 si
35	 3	 1	 right	 LineStimuli//2.8/stimNo93r9c20v2.8.jpg	 l	 1.746	 GoodTrial	 allStim	 si
36	 3	 1	 right	 LineStimuli//2.3/stimNo90r14c21v2.3.jpg	 l	 1.870	 GoodTrial	 allStim	 si
37	 3	 1	 right	 LineStimuli//1.8/stimNo82r7c18v1.8.jpg	 r	 5.857	 GoodTrial	 allStim	 si
38	 3	 0	 x	 LineStimuli//1.5/stimNo134r0c0v1.5.jpg	 r	 4.176	 GoodTrial	 allStim	 si
39	 3	 0	 x	 LineStimuli//1.5/stimNo140r0c0v1.5.jpg	 r	 6.524	 GoodTrial	 allStim	 si
40	 3	 1	 left	 LineStimuli//1.8/stimNo113r6c7v1.8.jpg	 l	 2.082	 GoodTrial	 allStim	 si
41	 3	 0	 x	 LineStimuli//2.3/stimNo156r0c0v2.3.jpg	 r	 4.991	 GoodTrial	 allStim	 si
42	 3	 1	 right	 LineStimuli//2.8/stimNo81r8c14v2.8.jpg	 l	 1.840	 GoodTrial	 allStim	 si
43	 3	 0	 x	 LineStimuli//3.3/stimNo154r0c0v3.3.jpg	 r	 4.800	 GoodTrial	 allStim	 si
44	 3	 0	 x	 LineStimuli//3.8/stimNo142r0c0v3.8.jpg	 l	 4.286	 GoodTrial	 allStim	 si
45	 3	 1	 left	 LineStimuli//4.3/stimNo86r7c3v4.3.jpg	 l	 1.840	 GoodTrial	 allStim	 si
46	 3	 1	 right	 LineStimuli//4.3/stimNo109r15c15v4.3.jpg	 l	 1.832	 GoodTrial	 allStim	 si
47	 3	 0	 x	 LineStimuli//3.8/stimNo159r0c0v3.8.jpg	 r	 3.378	 GoodTrial	 allStim	 si
48	 3	 0	 x	 LineStimuli//3.3/stimNo155r0c0v3.3.jpg	 r	 2.378	 GoodTrial	 allStim	 si
49	 3	 0	 x	 LineStimuli//2.8/stimNo126r0c0v2.8.jpg	 r	 2.961	 GoodTrial	 allStim	 si
50	 3	 1	 left	 LineStimuli//2.3/stimNo115r7c3v2.3.jpg	 l	 1.684	 GoodTrial	 allStim	 si
1	 4	 1	 right	 LineStimuli//3.3/stimNo84r6c16v3.3.jpg	 l	 1.574	 GoodTrial	 allStim	 si
2	 4	 1	 left	 LineStimuli//3.8/stimNo120r5c3v3.8.jpg	 l	 1.456	 GoodTrial	 allStim	 si
3	 4	 0	 x	 LineStimuli//4.3/stimNo142r0c0v4.3.jpg	 r	 2.168	 GoodTrial	 allStim	 si
4	 4	 0	 x	 LineStimuli//4.3/stimNo150r0c0v4.3.jpg	 r	 2.597	 GoodTrial	 allStim	 si
5	 4	 0	 x	 LineStimuli//3.8/stimNo124r0c0v3.8.jpg	 r	 2.541	 GoodTrial	 allStim	 si
6	 4	 0	 x	 LineStimuli//3.3/stimNo156r0c0v3.3.jpg	 r	 3.178	 GoodTrial	 allStim	 si
7	 4	 1	 left	 LineStimuli//2.8/stimNo107r5c6v2.8.jpg	 l	 1.567	 GoodTrial	 allStim	 si
8	 4	 0	 x	 LineStimuli//2.3/stimNo160r0c0v2.3.jpg	 r	 2.760	 GoodTrial	 allStim	 si
9	 4	 1	 right	 LineStimuli//1.8/stimNo117r10c16v1.8.jpg	 l	 1.984	 GoodTrial	 allStim	 si
10	 4	 0	 x	 LineStimuli//1.5/stimNo157r0c0v1.5.jpg	 r	 4.541	 GoodTrial	 allStim	 si
11	 4	 1	 right	 LineStimuli//1.5/stimNo81r6c17v1.5.jpg	 r	 3.755	 GoodTrial	 allStim	 si
12	 4	 0	 x	 LineStimuli//1.8/stimNo126r0c0v1.8.jpg	 r	 4.393	 GoodTrial	 allStim	 si
13	 4	 1	 left	 LineStimuli//2.3/stimNo108r15c6v2.3.jpg	 l	 2.519	 GoodTrial	 allStim	 si
14	 4	 0	 x	 LineStimuli//2.8/stimNo122r0c0v2.8.jpg	 r	 4.709	 GoodTrial	 allStim	 si
15	 4	 0	 x	 LineStimuli//3.3/stimNo150r0c0v3.3.jpg	 r	 4.385	 GoodTrial	 allStim	 si
16	 4	 0	 x	 LineStimuli//3.8/stimNo139r0c0v3.8.jpg	 r	 3.456	 GoodTrial	 allStim	 si
17	 4	 0	 x	 LineStimuli//4.3/stimNo136r0c0v4.3.jpg	 r	 2.721	 GoodTrial	 allStim	 si
18	 4	 1	 left	 LineStimuli//4.3/stimNo110r6c7v4.3.jpg	 l	 1.617	 GoodTrial	 allStim	 si
19	 4	 0	 x	 LineStimuli//3.8/stimNo123r0c0v3.8.jpg	 r	 2.455	 GoodTrial	 allStim	 si
20	 4	 1	 left	 LineStimuli//3.3/stimNo95r15c8v3.3.jpg	 l	 1.688	 GoodTrial	 allStim	 si
21	 4	 1	 right	 LineStimuli//2.8/stimNo81r8c14v2.8.jpg	 l	 1.592	 GoodTrial	 allStim	 si
22	 4	 0	 x	 LineStimuli//2.3/stimNo140r0c0v2.3.jpg	 r	 3.118	 GoodTrial	 allStim	 si
23	 4	 0	 x	 LineStimuli//1.8/stimNo130r0c0v1.8.jpg	 r	 4.657	 GoodTrial	 allStim	 si
24	 4	 1	 left	 LineStimuli//1.5/stimNo83r12c7v1.5.jpg	 r	 4.455	 GoodTrial	 allStim	 si
25	 4	 1	 left	 LineStimuli//1.5/stimNo112r9c5v1.5.jpg	 r	 6.274	 GoodTrial	 allStim	 si
26	 4	 1	 left	 LineStimuli//1.8/stimNo110r4c7v1.8.jpg	 l	 5.564	 GoodTrial	 allStim	 si
27	 4	 0	 x	 LineStimuli//2.3/stimNo138r0c0v2.3.jpg	 r	 9.401	 GoodTrial	 allStim	 si
28	 4	 1	 left	 LineStimuli//2.8/stimNo91r2c3v2.8.jpg	 l	 2.342	 GoodTrial	 allStim	 si
29	 4	 1	 right	 LineStimuli//3.3/stimNo88r9c14v3.3.jpg	 l	 2.473	 GoodTrial	 allStim	 si
30	 4	 1	 left	 LineStimuli//3.8/stimNo119r9c8v3.8.jpg	 l	 1.677	 GoodTrial	 allStim	 si
31	 4	 1	 left	 LineStimuli//4.3/stimNo93r9c9v4.3.jpg	 l	 1.670	 GoodTrial	 allStim	 si
32	 4	 1	 right	 LineStimuli//4.3/stimNo112r10c16v4.3.jpg	 l	 1.792	 GoodTrial	 allStim	 si
33	 4	 0	 x	 LineStimuli//3.8/stimNo160r0c0v3.8.jpg	 r	 2.394	 GoodTrial	 allStim	 si
34	 4	 0	 x	 LineStimuli//3.3/stimNo140r0c0v3.3.jpg	 r	 3.774	 GoodTrial	 allStim	 si
35	 4	 0	 x	 LineStimuli//2.8/stimNo153r0c0v2.8.jpg	 r	 2.552	 GoodTrial	 allStim	 si
36	 4	 0	 x	 LineStimuli//2.3/stimNo134r0c0v2.3.jpg	 r	 2.475	 GoodTrial	 allStim	 si
37	 4	 1	 left	 LineStimuli//1.8/stimNo95r4c9v1.8.jpg	 r	 2.964	 GoodTrial	 allStim	 si
38	 4	 0	 x	 LineStimuli//1.5/stimNo141r0c0v1.5.jpg	 r	 6.538	 GoodTrial	 allStim	 si
39	 4	 1	 right	 LineStimuli//1.5/stimNo103r13c17v1.5.jpg	 r	 5.528	 GoodTrial	 allStim	 si
40	 4	 0	 x	 LineStimuli//1.8/stimNo139r0c0v1.8.jpg	 r	 5.479	 GoodTrial	 allStim	 si
41	 4	 0	 x	 LineStimuli//2.3/stimNo126r0c0v2.3.jpg	 r	 6.180	 GoodTrial	 allStim	 si
42	 4	 0	 x	 LineStimuli//2.8/stimNo150r0c0v2.8.jpg	 r	 5.624	 GoodTrial	 allStim	 si
43	 4	 0	 x	 LineStimuli//3.3/stimNo128r0c0v3.3.jpg	 r	 4.424	 GoodTrial	 allStim	 si
44	 4	 1	 right	 LineStimuli//3.8/stimNo92r6c21v3.8.jpg	 l	 1.924	 GoodTrial	 allStim	 si
45	 4	 0	 x	 LineStimuli//4.3/stimNo156r0c0v4.3.jpg	 r	 2.195	 GoodTrial	 allStim	 si
46	 4	 0	 x	 LineStimuli//4.3/stimNo136r0c0v4.3.jpg	 r	 2.330	 GoodTrial	 allStim	 si
47	 4	 1	 left	 LineStimuli//3.8/stimNo115r14c10v3.8.jpg	 l	 1.710	 GoodTrial	 allStim	 si
48	 4	 0	 x	 LineStimuli//3.3/stimNo153r0c0v3.3.jpg	 r	 1.980	 GoodTrial	 allStim	 si
49	 4	 1	 left	 LineStimuli//2.8/stimNo96r6c9v2.8.jpg	 l	 1.782	 GoodTrial	 allStim	 si
50	 4	 1	 right	 LineStimuli//2.3/stimNo118r4c17v2.3.jpg	 l	 2.267	 GoodTrial	 allStim	 si
1	 5	 0	 x	 LineStimuli//3.3/stimNo130r0c0v3.3.jpg	 r	 2.838	 GoodTrial	 allStim	 si
2	 5	 0	 x	 LineStimuli//3.8/stimNo135r0c0v3.8.jpg	 r	 2.612	 GoodTrial	 allStim	 si
3	 5	 1	 left	 LineStimuli//4.3/stimNo111r10c9v4.3.jpg	 l	 1.690	 GoodTrial	 allStim	 si
4	 5	 0	 x	 LineStimuli//4.3/stimNo123r0c0v4.3.jpg	 r	 1.923	 GoodTrial	 allStim	 si
5	 5	 1	 right	 LineStimuli//3.8/stimNo96r2c13v3.8.jpg	 l	 2.284	 GoodTrial	 allStim	 si
6	 5	 1	 right	 LineStimuli//3.3/stimNo107r2c17v3.3.jpg	 l	 1.664	 GoodTrial	 allStim	 si
7	 5	 1	 right	 LineStimuli//2.8/stimNo99r9c18v2.8.jpg	 l	 1.816	 GoodTrial	 allStim	 si
8	 5	 1	 left	 LineStimuli//2.3/stimNo95r13c9v2.3.jpg	 l	 2.543	 GoodTrial	 allStim	 si
9	 5	 0	 x	 LineStimuli//1.8/stimNo141r0c0v1.8.jpg	 r	 4.052	 GoodTrial	 allStim	 si
10	 5	 0	 x	 LineStimuli//1.5/stimNo144r0c0v1.5.jpg	 r	 3.469	 GoodTrial	 allStim	 si
11	 5	 0	 x	 LineStimuli//1.5/stimNo151r0c0v1.5.jpg	 r	 2.284	 GoodTrial	 allStim	 si
12	 5	 1	 left	 LineStimuli//1.8/stimNo116r4c7v1.8.jpg	 l	 2.256	 GoodTrial	 allStim	 si
13	 5	 1	 right	 LineStimuli//2.3/stimNo109r2c17v2.3.jpg	 l	 2.765	 GoodTrial	 allStim	 si
14	 5	 0	 x	 LineStimuli//2.8/stimNo146r0c0v2.8.jpg	 r	 5.013	 GoodTrial	 allStim	 si
15	 5	 1	 left	 LineStimuli//3.3/stimNo94r14c9v3.3.jpg	 l	 1.769	 GoodTrial	 allStim	 si
16	 5	 1	 left	 LineStimuli//3.8/stimNo113r14c9v3.8.jpg	 l	 1.629	 GoodTrial	 allStim	 si
17	 5	 0	 x	 LineStimuli//4.3/stimNo127r0c0v4.3.jpg	 r	 3.021	 GoodTrial	 allStim	 si
18	 5	 0	 x	 LineStimuli//4.3/stimNo147r0c0v4.3.jpg	 r	 2.981	 GoodTrial	 allStim	 si
19	 5	 0	 x	 LineStimuli//3.8/stimNo155r0c0v3.8.jpg	 r	 2.744	 GoodTrial	 allStim	 si
20	 5	 1	 right	 LineStimuli//3.3/stimNo120r8c14v3.3.jpg	 r	 3.593	 GoodTrial	 allStim	 si
21	 5	 1	 left	 LineStimuli//2.8/stimNo107r5c6v2.8.jpg	 l	 1.711	 GoodTrial	 allStim	 si
22	 5	 1	 right	 LineStimuli//2.3/stimNo101r8c14v2.3.jpg	 l	 1.649	 GoodTrial	 allStim	 si
23	 5	 1	 right	 LineStimuli//1.8/stimNo90r15c13v1.8.jpg	 r	 4.393	 GoodTrial	 allStim	 si
24	 5	 1	 right	 LineStimuli//1.5/stimNo81r6c17v1.5.jpg	 r	 6.089	 GoodTrial	 allStim	 si
25	 5	 0	 x	 LineStimuli//1.5/stimNo131r0c0v1.5.jpg	 r	 4.570	 GoodTrial	 allStim	 si
26	 5	 0	 x	 LineStimuli//1.8/stimNo145r0c0v1.8.jpg	 r	 3.985	 GoodTrial	 allStim	 si
27	 5	 0	 x	 LineStimuli//2.3/stimNo123r0c0v2.3.jpg	 r	 4.201	 GoodTrial	 allStim	 si
28	 5	 0	 x	 LineStimuli//2.8/stimNo152r0c0v2.8.jpg	 r	 3.937	 GoodTrial	 allStim	 si
29	 5	 1	 right	 LineStimuli//3.3/stimNo107r2c17v3.3.jpg	 l	 2.043	 GoodTrial	 allStim	 si
30	 5	 1	 right	 LineStimuli//3.8/stimNo87r6c13v3.8.jpg	 l	 1.747	 GoodTrial	 allStim	 si
31	 5	 0	 x	 LineStimuli//4.3/stimNo140r0c0v4.3.jpg	 r	 3.277	 GoodTrial	 allStim	 si
32	 5	 0	 x	 LineStimuli//4.3/stimNo156r0c0v4.3.jpg	 x	 0.928	 EARLY_RESPONSE	 allStim	 si
33	 5	 1	 right	 LineStimuli//3.8/stimNo81r3c21v3.8.jpg	 l	 1.955	 GoodTrial	 allStim	 si
34	 5	 0	 x	 LineStimuli//3.3/stimNo131r0c0v3.3.jpg	 r	 3.610	 GoodTrial	 allStim	 si
35	 5	 1	 left	 LineStimuli//2.8/stimNo89r12c4v2.8.jpg	 l	 1.733	 GoodTrial	 allStim	 si
36	 5	 1	 left	 LineStimuli//2.3/stimNo83r14c4v2.3.jpg	 l	 1.831	 GoodTrial	 allStim	 si
37	 5	 0	 x	 LineStimuli//1.8/stimNo153r0c0v1.8.jpg	 r	 6.230	 GoodTrial	 allStim	 si
38	 5	 0	 x	 LineStimuli//1.5/stimNo157r0c0v1.5.jpg	 r	 5.760	 GoodTrial	 allStim	 si
39	 5	 0	 x	 LineStimuli//1.5/stimNo137r0c0v1.5.jpg	 r	 4.698	 GoodTrial	 allStim	 si
40	 5	 1	 right	 LineStimuli//1.8/stimNo92r10c18v1.8.jpg	 r	 3.842	 GoodTrial	 allStim	 si
41	 5	 0	 x	 LineStimuli//2.3/stimNo124r0c0v2.3.jpg	 r	 4.490	 GoodTrial	 allStim	 si
42	 5	 0	 x	 LineStimuli//2.8/stimNo147r0c0v2.8.jpg	 r	 3.126	 GoodTrial	 allStim	 si
43	 5	 0	 x	 LineStimuli//3.3/stimNo138r0c0v3.3.jpg	 r	 3.151	 GoodTrial	 allStim	 si
44	 5	 0	 x	 LineStimuli//3.8/stimNo127r0c0v3.8.jpg	 x	 3.488	 GoodTrial	 allStim	 si
45	 5	 0	 x	 LineStimuli//4.3/stimNo138r0c0v4.3.jpg	 r	 2.334	 GoodTrial	 allStim	 si
46	 5	 0	 x	 LineStimuli//4.3/stimNo160r0c0v4.3.jpg	 r	 2.262	 GoodTrial	 allStim	 si
47	 5	 0	 x	 LineStimuli//3.8/stimNo129r0c0v3.8.jpg	 r	 2.226	 GoodTrial	 allStim	 si
48	 5	 0	 x	 LineStimuli//3.3/stimNo148r0c0v3.3.jpg	 r	 3.056	 GoodTrial	 allStim	 si
49	 5	 1	 left	 LineStimuli//2.8/stimNo98r15c2v2.8.jpg	 l	 1.912	 GoodTrial	 allStim	 si
50	 5	 0	 x	 LineStimuli//2.3/stimNo134r0c0v2.3.jpg	 r	 1.956	 GoodTrial	 allStim	 si
1	 6	 0	 x	 LineStimuli//3.3/stimNo135r0c0v3.3.jpg	 r	 3.110	 GoodTrial	 allStim	 si
2	 6	 0	 x	 LineStimuli//3.8/stimNo133r0c0v3.8.jpg	 r	 3.202	 GoodTrial	 allStim	 si
3	 6	 1	 left	 LineStimuli//4.3/stimNo90r10c4v4.3.jpg	 l	 1.576	 GoodTrial	 allStim	 si
4	 6	 0	 x	 LineStimuli//4.3/stimNo134r0c0v4.3.jpg	 r	 2.604	 GoodTrial	 allStim	 si
5	 6	 0	 x	 LineStimuli//3.8/stimNo143r0c0v3.8.jpg	 r	 2.216	 GoodTrial	 allStim	 si
6	 6	 1	 left	 LineStimuli//3.3/stimNo115r3c4v3.3.jpg	 l	 1.910	 GoodTrial	 allStim	 si
7	 6	 0	 x	 LineStimuli//2.8/stimNo147r0c0v2.8.jpg	 r	 2.360	 GoodTrial	 allStim	 si
8	 6	 1	 right	 LineStimuli//2.3/stimNo91r11c20v2.3.jpg	 l	 2.266	 GoodTrial	 allStim	 si
9	 6	 0	 x	 LineStimuli//1.8/stimNo156r0c0v1.8.jpg	 r	 3.934	 GoodTrial	 allStim	 si
10	 6	 1	 left	 LineStimuli//1.5/stimNo97r15c6v1.5.jpg	 r	 3.234	 GoodTrial	 allStim	 si
11	 6	 1	 right	 LineStimuli//1.5/stimNo107r2c19v1.5.jpg	 r	 4.816	 GoodTrial	 allStim	 si
12	 6	 0	 x	 LineStimuli//1.8/stimNo130r0c0v1.8.jpg	 r	 5.376	 GoodTrial	 allStim	 si
13	 6	 0	 x	 LineStimuli//2.3/stimNo123r0c0v2.3.jpg	 r	 6.382	 GoodTrial	 allStim	 si
14	 6	 1	 right	 LineStimuli//2.8/stimNo92r14c21v2.8.jpg	 l	 2.366	 GoodTrial	 allStim	 si
15	 6	 0	 x	 LineStimuli//3.3/stimNo152r0c0v3.3.jpg	 r	 3.325	 GoodTrial	 allStim	 si
16	 6	 1	 left	 LineStimuli//3.8/stimNo115r14c10v3.8.jpg	 l	 1.806	 GoodTrial	 allStim	 si
17	 6	 1	 left	 LineStimuli//4.3/stimNo104r15c2v4.3.jpg	 l	 1.722	 GoodTrial	 allStim	 si
18	 6	 1	 left	 LineStimuli//4.3/stimNo86r7c3v4.3.jpg	 l	 1.608	 GoodTrial	 allStim	 si
19	 6	 0	 x	 LineStimuli//3.8/stimNo155r0c0v3.8.jpg	 r	 2.384	 GoodTrial	 allStim	 si
20	 6	 0	 x	 LineStimuli//3.3/stimNo122r0c0v3.3.jpg	 r	 2.712	 GoodTrial	 allStim	 si
21	 6	 0	 x	 LineStimuli//2.8/stimNo129r0c0v2.8.jpg	 r	 2.149	 GoodTrial	 allStim	 si
22	 6	 1	 right	 LineStimuli//2.3/stimNo92r10c17v2.3.jpg	 l	 1.710	 GoodTrial	 allStim	 si
23	 6	 1	 left	 LineStimuli//1.8/stimNo88r15c9v1.8.jpg	 l	 2.313	 GoodTrial	 allStim	 si
24	 6	 1	 right	 LineStimuli//1.5/stimNo104r5c18v1.5.jpg	 r	 3.118	 GoodTrial	 allStim	 si
25	 6	 0	 x	 LineStimuli//1.5/stimNo134r0c0v1.5.jpg	 r	 6.164	 GoodTrial	 allStim	 si
26	 6	 1	 right	 LineStimuli//1.8/stimNo119r3c21v1.8.jpg	 r	 3.376	 GoodTrial	 allStim	 si
27	 6	 1	 left	 LineStimuli//2.3/stimNo115r7c3v2.3.jpg	 l	 1.785	 GoodTrial	 allStim	 si
28	 6	 0	 x	 LineStimuli//2.8/stimNo141r0c0v2.8.jpg	 r	 4.633	 GoodTrial	 allStim	 si
29	 6	 1	 right	 LineStimuli//3.3/stimNo89r5c21v3.3.jpg	 l	 2.183	 GoodTrial	 allStim	 si
30	 6	 1	 right	 LineStimuli//3.8/stimNo117r6c17v3.8.jpg	 l	 1.639	 GoodTrial	 allStim	 si
31	 6	 0	 x	 LineStimuli//4.3/stimNo129r0c0v4.3.jpg	 r	 2.832	 GoodTrial	 allStim	 si
32	 6	 1	 left	 LineStimuli//4.3/stimNo93r9c9v4.3.jpg	 l	 1.561	 GoodTrial	 allStim	 si
33	 6	 0	 x	 LineStimuli//3.8/stimNo126r0c0v3.8.jpg	 r	 1.914	 GoodTrial	 allStim	 si
34	 6	 1	 right	 LineStimuli//3.3/stimNo99r6c17v3.3.jpg	 l	 1.496	 GoodTrial	 allStim	 si
35	 6	 1	 left	 LineStimuli//2.8/stimNo86r15c6v2.8.jpg	 l	 1.813	 GoodTrial	 allStim	 si
36	 6	 0	 x	 LineStimuli//2.3/stimNo121r0c0v2.3.jpg	 r	 3.808	 GoodTrial	 allStim	 si
37	 6	 0	 x	 LineStimuli//1.8/stimNo152r0c0v1.8.jpg	 r	 2.732	 GoodTrial	 allStim	 si
38	 6	 1	 left	 LineStimuli//1.5/stimNo106r3c7v1.5.jpg	 r	 2.091	 GoodTrial	 allStim	 si
39	 6	 0	 x	 LineStimuli//1.5/stimNo150r0c0v1.5.jpg	 r	 6.234	 GoodTrial	 allStim	 si
40	 6	 0	 x	 LineStimuli//1.8/stimNo159r0c0v1.8.jpg	 x	 1.513	 GoodTrial	 allStim	 si
41	 6	 1	 right	 LineStimuli//2.3/stimNo105r14c14v2.3.jpg	 l	 2.277	 GoodTrial	 allStim	 si
42	 6	 1	 right	 LineStimuli//2.8/stimNo95r9c18v2.8.jpg	 l	 1.659	 GoodTrial	 allStim	 si
43	 6	 1	 right	 LineStimuli//3.3/stimNo107r2c17v3.3.jpg	 l	 1.828	 GoodTrial	 allStim	 si
44	 6	 1	 right	 LineStimuli//3.8/stimNo94r6c17v3.8.jpg	 l	 1.544	 GoodTrial	 allStim	 si
45	 6	 1	 left	 LineStimuli//4.3/stimNo87r3c5v4.3.jpg	 l	 1.693	 GoodTrial	 allStim	 si
46	 6	 1	 right	 LineStimuli//4.3/stimNo102r10c19v4.3.jpg	 l	 1.733	 GoodTrial	 allStim	 si
47	 6	 0	 x	 LineStimuli//3.8/stimNo130r0c0v3.8.jpg	 r	 2.275	 GoodTrial	 allStim	 si
48	 6	 1	 right	 LineStimuli//3.3/stimNo96r8c18v3.3.jpg	 l	 1.614	 GoodTrial	 allStim	 si
49	 6	 0	 x	 LineStimuli//2.8/stimNo145r0c0v2.8.jpg	 r	 2.019	 GoodTrial	 allStim	 si
50	 6	 1	 right	 LineStimuli//2.3/stimNo92r10c17v2.3.jpg	 l	 1.659	 GoodTrial	 allStim	 si
1	 7	 0	 x	 LineStimuli//3.3/stimNo152r0c0v3.3.jpg	 r	 1.845	 GoodTrial	 allStim	 si
2	 7	 1	 right	 LineStimuli//3.8/stimNo114r10c14v3.8.jpg	 l	 1.593	 GoodTrial	 allStim	 si
3	 7	 0	 x	 LineStimuli//4.3/stimNo152r0c0v4.3.jpg	 r	 1.680	 GoodTrial	 allStim	 si
4	 7	 1	 right	 LineStimuli//4.3/stimNo120r8c18v4.3.jpg	 l	 1.480	 GoodTrial	 allStim	 si
5	 7	 1	 left	 LineStimuli//3.8/stimNo118r4c8v3.8.jpg	 l	 1.523	 GoodTrial	 allStim	 si
6	 7	 0	 x	 LineStimuli//3.3/stimNo150r0c0v3.3.jpg	 r	 1.780	 GoodTrial	 allStim	 si
7	 7	 0	 x	 LineStimuli//2.8/stimNo125r0c0v2.8.jpg	 r	 2.328	 GoodTrial	 allStim	 si
8	 7	 1	 right	 LineStimuli//2.3/stimNo98r12c21v2.3.jpg	 l	 2.224	 GoodTrial	 allStim	 si
9	 7	 0	 x	 LineStimuli//1.8/stimNo123r0c0v1.8.jpg	 r	 2.150	 GoodTrial	 allStim	 si
10	 7	 1	 left	 LineStimuli//1.5/stimNo94r10c6v1.5.jpg	 r	 2.126	 GoodTrial	 allStim	 si
11	 7	 1	 left	 LineStimuli//1.5/stimNo94r10c6v1.5.jpg	 r	 5.526	 GoodTrial	 allStim	 si
12	 7	 1	 right	 LineStimuli//1.8/stimNo97r15c18v1.8.jpg	 l	 3.478	 GoodTrial	 allStim	 si
13	 7	 0	 x	 LineStimuli//2.3/stimNo121r0c0v2.3.jpg	 r	 4.252	 GoodTrial	 allStim	 si
14	 7	 1	 left	 LineStimuli//2.8/stimNo94r13c7v2.8.jpg	 l	 1.956	 GoodTrial	 allStim	 si
15	 7	 0	 x	 LineStimuli//3.3/stimNo149r0c0v3.3.jpg	 r	 4.448	 GoodTrial	 allStim	 si
16	 7	 0	 x	 LineStimuli//3.8/stimNo145r0c0v3.8.jpg	 r	 3.328	 GoodTrial	 allStim	 si
17	 7	 1	 left	 LineStimuli//4.3/stimNo85r3c5v4.3.jpg	 l	 1.648	 GoodTrial	 allStim	 si
18	 7	 0	 x	 LineStimuli//4.3/stimNo155r0c0v4.3.jpg	 l	 3.738	 GoodTrial	 allStim	 si
19	 7	 1	 right	 LineStimuli//3.8/stimNo90r8c17v3.8.jpg	 l	 1.676	 GoodTrial	 allStim	 si
20	 7	 1	 left	 LineStimuli//3.3/stimNo81r15c8v3.3.jpg	 l	 1.650	 GoodTrial	 allStim	 si
21	 7	 0	 x	 LineStimuli//2.8/stimNo157r0c0v2.8.jpg	 r	 3.616	 GoodTrial	 allStim	 si
22	 7	 1	 left	 LineStimuli//2.3/stimNo100r8c6v2.3.jpg	 l	 1.686	 GoodTrial	 allStim	 si
23	 7	 0	 x	 LineStimuli//1.8/stimNo144r0c0v1.8.jpg	 r	 3.240	 GoodTrial	 allStim	 si
24	 7	 1	 left	 LineStimuli//1.5/stimNo96r15c4v1.5.jpg	 r	 4.280	 GoodTrial	 allStim	 si
25	 7	 1	 right	 LineStimuli//1.5/stimNo82r11c15v1.5.jpg	 r	 6.760	 GoodTrial	 allStim	 si
26	 7	 0	 x	 LineStimuli//1.8/stimNo160r0c0v1.8.jpg	 r	 6.854	 GoodTrial	 allStim	 si
27	 7	 0	 x	 LineStimuli//2.3/stimNo132r0c0v2.3.jpg	 r	 3.944	 GoodTrial	 allStim	 si
28	 7	 1	 right	 LineStimuli//2.8/stimNo93r9c20v2.8.jpg	 l	 1.800	 GoodTrial	 allStim	 si
29	 7	 0	 x	 LineStimuli//3.3/stimNo135r0c0v3.3.jpg	 r	 2.856	 GoodTrial	 allStim	 si
30	 7	 1	 right	 LineStimuli//3.8/stimNo95r5c21v3.8.jpg	 l	 1.682	 GoodTrial	 allStim	 si
31	 7	 0	 x	 LineStimuli//4.3/stimNo131r0c0v4.3.jpg	 r	 2.937	 GoodTrial	 allStim	 si
32	 7	 0	 x	 LineStimuli//4.3/stimNo129r0c0v4.3.jpg	 r	 2.165	 GoodTrial	 allStim	 si
33	 7	 1	 right	 LineStimuli//3.8/stimNo88r10c17v3.8.jpg	 l	 1.657	 GoodTrial	 allStim	 si
34	 7	 0	 x	 LineStimuli//3.3/stimNo160r0c0v3.3.jpg	 r	 2.528	 GoodTrial	 allStim	 si
35	 7	 1	 right	 LineStimuli//2.8/stimNo117r11c17v2.8.jpg	 l	 1.675	 GoodTrial	 allStim	 si
36	 7	 1	 right	 LineStimuli//2.3/stimNo107r11c15v2.3.jpg	 l	 2.009	 GoodTrial	 allStim	 si
37	 7	 1	 left	 LineStimuli//1.8/stimNo105r6c5v1.8.jpg	 l	 2.856	 GoodTrial	 allStim	 si
38	 7	 0	 x	 LineStimuli//1.5/stimNo157r0c0v1.5.jpg	 r	 3.711	 GoodTrial	 allStim	 si
39	 7	 0	 x	 LineStimuli//1.5/stimNo122r0c0v1.5.jpg	 r	 4.298	 GoodTrial	 allStim	 si
40	 7	 0	 x	 LineStimuli//1.8/stimNo132r0c0v1.8.jpg	 x	 1.176	 GoodTrial	 allStim	 si
41	 7	 1	 left	 LineStimuli//2.3/stimNo94r8c9v2.3.jpg	 l	 2.183	 GoodTrial	 allStim	 si
42	 7	 1	 right	 LineStimuli//2.8/stimNo117r11c17v2.8.jpg	 l	 1.901	 GoodTrial	 allStim	 si
43	 7	 0	 x	 LineStimuli//3.3/stimNo146r0c0v3.3.jpg	 r	 2.687	 GoodTrial	 allStim	 si
44	 7	 0	 x	 LineStimuli//3.8/stimNo145r0c0v3.8.jpg	 r	 2.251	 GoodTrial	 allStim	 si
45	 7	 0	 x	 LineStimuli//4.3/stimNo149r0c0v4.3.jpg	 r	 2.337	 GoodTrial	 allStim	 si
46	 7	 0	 x	 LineStimuli//4.3/stimNo150r0c0v4.3.jpg	 r	 2.609	 GoodTrial	 allStim	 si
47	 7	 0	 x	 LineStimuli//3.8/stimNo143r0c0v3.8.jpg	 r	 2.429	 GoodTrial	 allStim	 si
48	 7	 0	 x	 LineStimuli//3.3/stimNo137r0c0v3.3.jpg	 r	 2.383	 GoodTrial	 allStim	 si
49	 7	 1	 left	 LineStimuli//2.8/stimNo102r3c2v2.8.jpg	 l	 1.769	 GoodTrial	 allStim	 si
50	 7	 0	 x	 LineStimuli//2.3/stimNo147r0c0v2.3.jpg	 r	 2.779	 GoodTrial	 allStim	 si
