Trial	Block	Target_pr	Target_side	Name	Key	RT	Message	Block_Type	Condition
1	 1	 0	 x	 LineStimuli//3.3/stimNo130r0c0v3.3.jpg	 r	 4.842	 GoodTrial	 allStim	 si
2	 1	 1	 right	 LineStimuli//3.8/stimNo102r10c17v3.8.jpg	 l	 1.893	 GoodTrial	 allStim	 si
3	 1	 0	 x	 LineStimuli//4.3/stimNo140r0c0v4.3.jpg	 r	 2.458	 GoodTrial	 allStim	 si
4	 1	 0	 x	 LineStimuli//4.3/stimNo146r0c0v4.3.jpg	 l	 3.286	 GoodTrial	 allStim	 si
5	 1	 1	 left	 LineStimuli//3.8/stimNo104r12c8v3.8.jpg	 l	 2.104	 GoodTrial	 allStim	 si
6	 1	 1	 left	 LineStimuli//3.3/stimNo90r2c9v3.3.jpg	 l	 2.212	 GoodTrial	 allStim	 si
7	 1	 1	 left	 LineStimuli//2.8/stimNo84r3c9v2.8.jpg	 l	 1.758	 GoodTrial	 allStim	 si
8	 1	 0	 x	 LineStimuli//2.3/stimNo142r0c0v2.3.jpg	 r	 3.916	 GoodTrial	 allStim	 si
9	 1	 1	 left	 LineStimuli//1.8/stimNo115r5c9v1.8.jpg	 l	 1.872	 GoodTrial	 allStim	 si
10	 1	 1	 right	 LineStimuli//1.5/stimNo93r14c18v1.5.jpg	 r	 4.392	 GoodTrial	 allStim	 si
11	 1	 1	 left	 LineStimuli//1.5/stimNo88r6c7v1.5.jpg	 r	 5.196	 GoodTrial	 allStim	 si
12	 1	 0	 x	 LineStimuli//1.8/stimNo146r0c0v1.8.jpg	 r	 7.760	 GoodTrial	 allStim	 si
13	 1	 0	 x	 LineStimuli//2.3/stimNo158r0c0v2.3.jpg	 r	 4.420	 GoodTrial	 allStim	 si
14	 1	 0	 x	 LineStimuli//2.8/stimNo134r0c0v2.8.jpg	 r	 3.296	 GoodTrial	 allStim	 si
15	 1	 0	 x	 LineStimuli//3.3/stimNo157r0c0v3.3.jpg	 r	 2.784	 GoodTrial	 allStim	 si
16	 1	 1	 right	 LineStimuli//3.8/stimNo112r12c16v3.8.jpg	 l	 1.717	 GoodTrial	 allStim	 si
17	 1	 1	 left	 LineStimuli//4.3/stimNo98r3c8v4.3.jpg	 l	 1.544	 GoodTrial	 allStim	 si
18	 1	 1	 left	 LineStimuli//4.3/stimNo103r10c4v4.3.jpg	 l	 1.578	 GoodTrial	 allStim	 si
19	 1	 0	 x	 LineStimuli//3.8/stimNo143r0c0v3.8.jpg	 r	 2.671	 GoodTrial	 allStim	 si
20	 1	 1	 left	 LineStimuli//3.3/stimNo86r5c7v3.3.jpg	 l	 1.600	 GoodTrial	 allStim	 si
21	 1	 0	 x	 LineStimuli//2.8/stimNo155r0c0v2.8.jpg	 r	 2.636	 GoodTrial	 allStim	 si
22	 1	 0	 x	 LineStimuli//2.3/stimNo144r0c0v2.3.jpg	 r	 3.160	 GoodTrial	 allStim	 si
23	 1	 1	 right	 LineStimuli//1.8/stimNo82r7c18v1.8.jpg	 l	 1.775	 GoodTrial	 allStim	 si
24	 1	 0	 x	 LineStimuli//1.5/stimNo125r0c0v1.5.jpg	 r	 6.040	 GoodTrial	 allStim	 si
25	 1	 1	 right	 LineStimuli//1.5/stimNo108r13c15v1.5.jpg	 l	 3.374	 GoodTrial	 allStim	 si
26	 1	 0	 x	 LineStimuli//1.8/stimNo137r0c0v1.8.jpg	 r	 5.082	 GoodTrial	 allStim	 si
27	 1	 0	 x	 LineStimuli//2.3/stimNo155r0c0v2.3.jpg	 r	 4.697	 GoodTrial	 allStim	 si
28	 1	 0	 x	 LineStimuli//2.8/stimNo150r0c0v2.8.jpg	 r	 2.919	 GoodTrial	 allStim	 si
29	 1	 1	 left	 LineStimuli//3.3/stimNo94r14c9v3.3.jpg	 l	 1.598	 GoodTrial	 allStim	 si
30	 1	 0	 x	 LineStimuli//3.8/stimNo127r0c0v3.8.jpg	 r	 2.248	 GoodTrial	 allStim	 si
31	 1	 1	 left	 LineStimuli//4.3/stimNo103r10c4v4.3.jpg	 l	 1.534	 GoodTrial	 allStim	 si
32	 1	 0	 x	 LineStimuli//4.3/stimNo151r0c0v4.3.jpg	 r	 1.709	 GoodTrial	 allStim	 si
33	 1	 0	 x	 LineStimuli//3.8/stimNo141r0c0v3.8.jpg	 r	 2.091	 GoodTrial	 allStim	 si
34	 1	 1	 right	 LineStimuli//3.3/stimNo91r12c16v3.3.jpg	 l	 1.641	 GoodTrial	 allStim	 si
35	 1	 1	 left	 LineStimuli//2.8/stimNo84r3c9v2.8.jpg	 l	 1.697	 GoodTrial	 allStim	 si
36	 1	 0	 x	 LineStimuli//2.3/stimNo127r0c0v2.3.jpg	 r	 2.249	 GoodTrial	 allStim	 si
37	 1	 1	 left	 LineStimuli//1.8/stimNo113r6c7v1.8.jpg	 l	 2.553	 GoodTrial	 allStim	 si
38	 1	 0	 x	 LineStimuli//1.5/stimNo157r0c0v1.5.jpg	 r	 3.975	 GoodTrial	 allStim	 si
39	 1	 1	 left	 LineStimuli//1.5/stimNo109r8c6v1.5.jpg	 l	 1.657	 GoodTrial	 allStim	 si
40	 1	 1	 left	 LineStimuli//1.8/stimNo115r5c9v1.8.jpg	 l	 2.328	 GoodTrial	 allStim	 si
41	 1	 0	 x	 LineStimuli//2.3/stimNo135r0c0v2.3.jpg	 r	 2.912	 GoodTrial	 allStim	 si
42	 1	 0	 x	 LineStimuli//2.8/stimNo152r0c0v2.8.jpg	 r	 2.802	 GoodTrial	 allStim	 si
43	 1	 0	 x	 LineStimuli//3.3/stimNo142r0c0v3.3.jpg	 r	 2.235	 GoodTrial	 allStim	 si
44	 1	 1	 right	 LineStimuli//3.8/stimNo92r6c21v3.8.jpg	 l	 1.586	 GoodTrial	 allStim	 si
45	 1	 0	 x	 LineStimuli//4.3/stimNo158r0c0v4.3.jpg	 r	 1.903	 GoodTrial	 allStim	 si
46	 1	 1	 right	 LineStimuli//4.3/stimNo114r10c15v4.3.jpg	 l	 1.507	 GoodTrial	 allStim	 si
47	 1	 0	 x	 LineStimuli//3.8/stimNo140r0c0v3.8.jpg	 r	 1.702	 GoodTrial	 allStim	 si
48	 1	 0	 x	 LineStimuli//3.3/stimNo155r0c0v3.3.jpg	 r	 1.849	 GoodTrial	 allStim	 si
49	 1	 0	 x	 LineStimuli//2.8/stimNo138r0c0v2.8.jpg	 r	 1.865	 GoodTrial	 allStim	 si
50	 1	 1	 left	 LineStimuli//2.3/stimNo97r3c3v2.3.jpg	 l	 1.657	 GoodTrial	 allStim	 si
1	 2	 0	 x	 LineStimuli//3.3/stimNo147r0c0v3.3.jpg	 r	 2.015	 GoodTrial	 allStim	 si
2	 2	 1	 left	 LineStimuli//3.8/stimNo104r12c8v3.8.jpg	 l	 1.459	 GoodTrial	 allStim	 si
3	 2	 0	 x	 LineStimuli//4.3/stimNo155r0c0v4.3.jpg	 r	 1.595	 GoodTrial	 allStim	 si
4	 2	 0	 x	 LineStimuli//4.3/stimNo151r0c0v4.3.jpg	 x	 0.359	 EARLY_RESPONSE	 allStim	 si
5	 2	 1	 left	 LineStimuli//3.8/stimNo89r10c7v3.8.jpg	 l	 1.813	 GoodTrial	 allStim	 si
6	 2	 1	 left	 LineStimuli//3.3/stimNo117r2c5v3.3.jpg	 l	 1.544	 GoodTrial	 allStim	 si
7	 2	 0	 x	 LineStimuli//2.8/stimNo122r0c0v2.8.jpg	 r	 2.096	 GoodTrial	 allStim	 si
8	 2	 1	 right	 LineStimuli//2.3/stimNo109r2c17v2.3.jpg	 l	 1.663	 GoodTrial	 allStim	 si
9	 2	 1	 left	 LineStimuli//1.8/stimNo103r15c10v1.8.jpg	 l	 2.487	 GoodTrial	 allStim	 si
10	 2	 1	 right	 LineStimuli//1.5/stimNo101r5c20v1.5.jpg	 l	 2.086	 GoodTrial	 allStim	 si
11	 2	 0	 x	 LineStimuli//1.5/stimNo143r0c0v1.5.jpg	 r	 3.381	 GoodTrial	 allStim	 si
12	 2	 0	 x	 LineStimuli//1.8/stimNo137r0c0v1.8.jpg	 r	 3.498	 GoodTrial	 allStim	 si
13	 2	 0	 x	 LineStimuli//2.3/stimNo126r0c0v2.3.jpg	 r	 3.488	 GoodTrial	 allStim	 si
14	 2	 0	 x	 LineStimuli//2.8/stimNo156r0c0v2.8.jpg	 r	 2.515	 GoodTrial	 allStim	 si
15	 2	 0	 x	 LineStimuli//3.3/stimNo126r0c0v3.3.jpg	 r	 1.867	 GoodTrial	 allStim	 si
16	 2	 0	 x	 LineStimuli//3.8/stimNo154r0c0v3.8.jpg	 r	 2.248	 GoodTrial	 allStim	 si
17	 2	 0	 x	 LineStimuli//4.3/stimNo150r0c0v4.3.jpg	 r	 1.888	 GoodTrial	 allStim	 si
18	 2	 1	 left	 LineStimuli//4.3/stimNo95r11c9v4.3.jpg	 l	 1.612	 GoodTrial	 allStim	 si
19	 2	 1	 left	 LineStimuli//3.8/stimNo86r7c7v3.8.jpg	 l	 1.518	 GoodTrial	 allStim	 si
20	 2	 1	 left	 LineStimuli//3.3/stimNo111r15c7v3.3.jpg	 l	 1.669	 GoodTrial	 allStim	 si
21	 2	 1	 right	 LineStimuli//2.8/stimNo109r6c18v2.8.jpg	 l	 1.600	 GoodTrial	 allStim	 si
22	 2	 0	 x	 LineStimuli//2.3/stimNo134r0c0v2.3.jpg	 r	 2.300	 GoodTrial	 allStim	 si
23	 2	 0	 x	 LineStimuli//1.8/stimNo126r0c0v1.8.jpg	 r	 2.526	 GoodTrial	 allStim	 si
24	 2	 0	 x	 LineStimuli//1.5/stimNo125r0c0v1.5.jpg	 r	 3.816	 GoodTrial	 allStim	 si
25	 2	 0	 x	 LineStimuli//1.5/stimNo157r0c0v1.5.jpg	 r	 3.952	 GoodTrial	 allStim	 si
26	 2	 0	 x	 LineStimuli//1.8/stimNo129r0c0v1.8.jpg	 r	 4.606	 GoodTrial	 allStim	 si
27	 2	 0	 x	 LineStimuli//2.3/stimNo143r0c0v2.3.jpg	 r	 3.368	 GoodTrial	 allStim	 si
28	 2	 1	 left	 LineStimuli//2.8/stimNo102r3c2v2.8.jpg	 l	 1.758	 GoodTrial	 allStim	 si
29	 2	 0	 x	 LineStimuli//3.3/stimNo151r0c0v3.3.jpg	 r	 1.712	 GoodTrial	 allStim	 si
30	 2	 1	 right	 LineStimuli//3.8/stimNo85r3c13v3.8.jpg	 l	 1.544	 GoodTrial	 allStim	 si
31	 2	 1	 left	 LineStimuli//4.3/stimNo83r4c2v4.3.jpg	 l	 1.610	 GoodTrial	 allStim	 si
32	 2	 0	 x	 LineStimuli//4.3/stimNo139r0c0v4.3.jpg	 r	 1.621	 GoodTrial	 allStim	 si
33	 2	 1	 right	 LineStimuli//3.8/stimNo90r8c17v3.8.jpg	 l	 1.507	 GoodTrial	 allStim	 si
34	 2	 1	 left	 LineStimuli//3.3/stimNo83r8c3v3.3.jpg	 l	 1.570	 GoodTrial	 allStim	 si
35	 2	 0	 x	 LineStimuli//2.8/stimNo121r0c0v2.8.jpg	 r	 1.857	 GoodTrial	 allStim	 si
36	 2	 0	 x	 LineStimuli//2.3/stimNo125r0c0v2.3.jpg	 r	 1.768	 GoodTrial	 allStim	 si
37	 2	 0	 x	 LineStimuli//1.8/stimNo150r0c0v1.8.jpg	 r	 2.796	 GoodTrial	 allStim	 si
38	 2	 0	 x	 LineStimuli//1.5/stimNo158r0c0v1.5.jpg	 r	 4.540	 GoodTrial	 allStim	 si
39	 2	 1	 left	 LineStimuli//1.5/stimNo112r9c5v1.5.jpg	 l	 2.631	 GoodTrial	 allStim	 si
40	 2	 1	 right	 LineStimuli//1.8/stimNo99r12c16v1.8.jpg	 l	 2.344	 GoodTrial	 allStim	 si
41	 2	 0	 x	 LineStimuli//2.3/stimNo142r0c0v2.3.jpg	 r	 3.611	 GoodTrial	 allStim	 si
42	 2	 0	 x	 LineStimuli//2.8/stimNo124r0c0v2.8.jpg	 r	 2.547	 GoodTrial	 allStim	 si
43	 2	 0	 x	 LineStimuli//3.3/stimNo133r0c0v3.3.jpg	 r	 2.153	 GoodTrial	 allStim	 si
44	 2	 0	 x	 LineStimuli//3.8/stimNo144r0c0v3.8.jpg	 r	 1.980	 GoodTrial	 allStim	 si
45	 2	 1	 right	 LineStimuli//4.3/stimNo102r10c19v4.3.jpg	 l	 1.609	 GoodTrial	 allStim	 si
46	 2	 1	 left	 LineStimuli//4.3/stimNo110r6c7v4.3.jpg	 l	 1.514	 GoodTrial	 allStim	 si
47	 2	 1	 left	 LineStimuli//3.8/stimNo109r11c8v3.8.jpg	 l	 1.880	 GoodTrial	 allStim	 si
48	 2	 0	 x	 LineStimuli//3.3/stimNo122r0c0v3.3.jpg	 r	 1.881	 GoodTrial	 allStim	 si
49	 2	 1	 right	 LineStimuli//2.8/stimNo118r5c16v2.8.jpg	 l	 1.476	 GoodTrial	 allStim	 si
50	 2	 0	 x	 LineStimuli//2.3/stimNo126r0c0v2.3.jpg	 r	 2.433	 GoodTrial	 allStim	 si
1	 3	 0	 x	 LineStimuli//3.3/stimNo145r0c0v3.3.jpg	 r	 1.657	 GoodTrial	 allStim	 si
2	 3	 1	 right	 LineStimuli//3.8/stimNo111r15c20v3.8.jpg	 l	 1.579	 GoodTrial	 allStim	 si
3	 3	 0	 x	 LineStimuli//4.3/stimNo142r0c0v4.3.jpg	 r	 1.625	 GoodTrial	 allStim	 si
4	 3	 0	 x	 LineStimuli//4.3/stimNo152r0c0v4.3.jpg	 r	 1.627	 GoodTrial	 allStim	 si
5	 3	 0	 x	 LineStimuli//3.8/stimNo122r0c0v3.8.jpg	 r	 1.701	 GoodTrial	 allStim	 si
6	 3	 1	 right	 LineStimuli//3.3/stimNo84r6c16v3.3.jpg	 l	 1.493	 GoodTrial	 allStim	 si
7	 3	 1	 right	 LineStimuli//2.8/stimNo111r9c15v2.8.jpg	 l	 1.665	 GoodTrial	 allStim	 si
8	 3	 1	 left	 LineStimuli//2.3/stimNo116r2c2v2.3.jpg	 l	 1.873	 GoodTrial	 allStim	 si
9	 3	 0	 x	 LineStimuli//1.8/stimNo148r0c0v1.8.jpg	 r	 3.581	 GoodTrial	 allStim	 si
10	 3	 0	 x	 LineStimuli//1.5/stimNo122r0c0v1.5.jpg	 r	 4.611	 GoodTrial	 allStim	 si
11	 3	 1	 right	 LineStimuli//1.5/stimNo111r7c17v1.5.jpg	 r	 5.457	 GoodTrial	 allStim	 si
12	 3	 1	 right	 LineStimuli//1.8/stimNo114r8c13v1.8.jpg	 l	 1.721	 GoodTrial	 allStim	 si
13	 3	 0	 x	 LineStimuli//2.3/stimNo138r0c0v2.3.jpg	 r	 2.495	 GoodTrial	 allStim	 si
14	 3	 1	 left	 LineStimuli//2.8/stimNo98r15c2v2.8.jpg	 l	 1.761	 GoodTrial	 allStim	 si
15	 3	 1	 right	 LineStimuli//3.3/stimNo82r11c20v3.3.jpg	 l	 1.693	 GoodTrial	 allStim	 si
16	 3	 0	 x	 LineStimuli//3.8/stimNo156r0c0v3.8.jpg	 r	 1.665	 GoodTrial	 allStim	 si
17	 3	 1	 left	 LineStimuli//4.3/stimNo86r7c3v4.3.jpg	 l	 1.565	 GoodTrial	 allStim	 si
18	 3	 0	 x	 LineStimuli//4.3/stimNo160r0c0v4.3.jpg	 r	 1.665	 GoodTrial	 allStim	 si
19	 3	 0	 x	 LineStimuli//3.8/stimNo147r0c0v3.8.jpg	 r	 1.669	 GoodTrial	 allStim	 si
20	 3	 0	 x	 LineStimuli//3.3/stimNo160r0c0v3.3.jpg	 r	 1.667	 GoodTrial	 allStim	 si
21	 3	 1	 right	 LineStimuli//2.8/stimNo117r11c17v2.8.jpg	 l	 1.481	 GoodTrial	 allStim	 si
22	 3	 0	 x	 LineStimuli//2.3/stimNo121r0c0v2.3.jpg	 r	 1.955	 GoodTrial	 allStim	 si
23	 3	 0	 x	 LineStimuli//1.8/stimNo160r0c0v1.8.jpg	 r	 3.167	 GoodTrial	 allStim	 si
24	 3	 1	 left	 LineStimuli//1.5/stimNo102r7c6v1.5.jpg	 r	 6.097	 GoodTrial	 allStim	 si
25	 3	 1	 right	 LineStimuli//1.5/stimNo92r6c18v1.5.jpg	 r	 7.136	 GoodTrial	 allStim	 si
26	 3	 0	 x	 LineStimuli//1.8/stimNo131r0c0v1.8.jpg	 r	 5.157	 GoodTrial	 allStim	 si
27	 3	 1	 left	 LineStimuli//2.3/stimNo119r3c2v2.3.jpg	 l	 1.703	 GoodTrial	 allStim	 si
28	 3	 0	 x	 LineStimuli//2.8/stimNo159r0c0v2.8.jpg	 r	 1.839	 GoodTrial	 allStim	 si
29	 3	 0	 x	 LineStimuli//3.3/stimNo123r0c0v3.3.jpg	 r	 2.193	 GoodTrial	 allStim	 si
30	 3	 0	 x	 LineStimuli//3.8/stimNo130r0c0v3.8.jpg	 r	 1.790	 GoodTrial	 allStim	 si
31	 3	 1	 left	 LineStimuli//4.3/stimNo103r10c4v4.3.jpg	 l	 1.470	 GoodTrial	 allStim	 si
32	 3	 0	 x	 LineStimuli//4.3/stimNo150r0c0v4.3.jpg	 r	 1.654	 GoodTrial	 allStim	 si
33	 3	 0	 x	 LineStimuli//3.8/stimNo139r0c0v3.8.jpg	 r	 1.606	 GoodTrial	 allStim	 si
34	 3	 1	 right	 LineStimuli//3.3/stimNo116r10c14v3.3.jpg	 l	 1.646	 GoodTrial	 allStim	 si
35	 3	 0	 x	 LineStimuli//2.8/stimNo158r0c0v2.8.jpg	 r	 1.864	 GoodTrial	 allStim	 si
36	 3	 0	 x	 LineStimuli//2.3/stimNo134r0c0v2.3.jpg	 r	 2.080	 GoodTrial	 allStim	 si
37	 3	 0	 x	 LineStimuli//1.8/stimNo136r0c0v1.8.jpg	 r	 3.424	 GoodTrial	 allStim	 si
38	 3	 1	 left	 LineStimuli//1.5/stimNo110r7c3v1.5.jpg	 l	 1.716	 GoodTrial	 allStim	 si
39	 3	 1	 left	 LineStimuli//1.5/stimNo106r3c7v1.5.jpg	 r	 5.026	 GoodTrial	 allStim	 si
40	 3	 1	 left	 LineStimuli//1.8/stimNo95r4c9v1.8.jpg	 l	 2.108	 GoodTrial	 allStim	 si
41	 3	 1	 right	 LineStimuli//2.3/stimNo93r4c16v2.3.jpg	 l	 1.570	 GoodTrial	 allStim	 si
42	 3	 1	 left	 LineStimuli//2.8/stimNo98r15c2v2.8.jpg	 l	 1.671	 GoodTrial	 allStim	 si
43	 3	 0	 x	 LineStimuli//3.3/stimNo135r0c0v3.3.jpg	 r	 1.585	 GoodTrial	 allStim	 si
44	 3	 0	 x	 LineStimuli//3.8/stimNo158r0c0v3.8.jpg	 r	 1.640	 GoodTrial	 allStim	 si
45	 3	 0	 x	 LineStimuli//4.3/stimNo131r0c0v4.3.jpg	 r	 1.566	 GoodTrial	 allStim	 si
46	 3	 0	 x	 LineStimuli//4.3/stimNo121r0c0v4.3.jpg	 r	 1.656	 GoodTrial	 allStim	 si
47	 3	 1	 right	 LineStimuli//3.8/stimNo84r9c19v3.8.jpg	 l	 1.452	 GoodTrial	 allStim	 si
48	 3	 1	 right	 LineStimuli//3.3/stimNo102r13c13v3.3.jpg	 l	 1.688	 GoodTrial	 allStim	 si
49	 3	 1	 right	 LineStimuli//2.8/stimNo100r8c13v2.8.jpg	 l	 1.982	 GoodTrial	 allStim	 si
50	 3	 1	 left	 LineStimuli//2.3/stimNo113r3c8v2.3.jpg	 l	 1.496	 GoodTrial	 allStim	 si
1	 4	 1	 right	 LineStimuli//3.3/stimNo101r7c16v3.3.jpg	 l	 0.472	 EARLY_RESPONSE	 allStim	 si
2	 4	 0	 x	 LineStimuli//3.8/stimNo158r0c0v3.8.jpg	 r	 2.343	 GoodTrial	 allStim	 si
3	 4	 0	 x	 LineStimuli//4.3/stimNo125r0c0v4.3.jpg	 r	 1.739	 GoodTrial	 allStim	 si
4	 4	 0	 x	 LineStimuli//4.3/stimNo140r0c0v4.3.jpg	 r	 1.540	 GoodTrial	 allStim	 si
5	 4	 0	 x	 LineStimuli//3.8/stimNo143r0c0v3.8.jpg	 r	 1.532	 GoodTrial	 allStim	 si
6	 4	 0	 x	 LineStimuli//3.3/stimNo156r0c0v3.3.jpg	 r	 1.744	 GoodTrial	 allStim	 si
7	 4	 1	 left	 LineStimuli//2.8/stimNo102r3c2v2.8.jpg	 l	 1.552	 GoodTrial	 allStim	 si
8	 4	 0	 x	 LineStimuli//2.3/stimNo132r0c0v2.3.jpg	 r	 2.508	 GoodTrial	 allStim	 si
9	 4	 0	 x	 LineStimuli//1.8/stimNo130r0c0v1.8.jpg	 r	 2.872	 GoodTrial	 allStim	 si
10	 4	 0	 x	 LineStimuli//1.5/stimNo141r0c0v1.5.jpg	 l	 1.608	 GoodTrial	 allStim	 si
11	 4	 1	 left	 LineStimuli//1.5/stimNo97r15c6v1.5.jpg	 r	 5.224	 GoodTrial	 allStim	 si
12	 4	 0	 x	 LineStimuli//1.8/stimNo124r0c0v1.8.jpg	 r	 7.977	 GoodTrial	 allStim	 si
13	 4	 1	 right	 LineStimuli//2.3/stimNo90r14c21v2.3.jpg	 l	 1.850	 GoodTrial	 allStim	 si
14	 4	 1	 right	 LineStimuli//2.8/stimNo106r13c20v2.8.jpg	 l	 1.601	 GoodTrial	 allStim	 si
15	 4	 1	 right	 LineStimuli//3.3/stimNo105r7c20v3.3.jpg	 l	 1.539	 GoodTrial	 allStim	 si
16	 4	 1	 left	 LineStimuli//3.8/stimNo89r10c7v3.8.jpg	 l	 1.743	 GoodTrial	 allStim	 si
17	 4	 1	 left	 LineStimuli//4.3/stimNo108r5c8v4.3.jpg	 l	 1.462	 GoodTrial	 allStim	 si
18	 4	 0	 x	 LineStimuli//4.3/stimNo147r0c0v4.3.jpg	 r	 1.759	 GoodTrial	 allStim	 si
19	 4	 0	 x	 LineStimuli//3.8/stimNo122r0c0v3.8.jpg	 r	 1.581	 GoodTrial	 allStim	 si
20	 4	 1	 left	 LineStimuli//3.3/stimNo95r15c8v3.3.jpg	 l	 1.797	 GoodTrial	 allStim	 si
21	 4	 0	 x	 LineStimuli//2.8/stimNo130r0c0v2.8.jpg	 r	 1.813	 GoodTrial	 allStim	 si
22	 4	 1	 left	 LineStimuli//2.3/stimNo116r2c2v2.3.jpg	 l	 1.617	 GoodTrial	 allStim	 si
23	 4	 0	 x	 LineStimuli//1.8/stimNo134r0c0v1.8.jpg	 r	 4.757	 GoodTrial	 allStim	 si
24	 4	 0	 x	 LineStimuli//1.5/stimNo142r0c0v1.5.jpg	 r	 6.973	 GoodTrial	 allStim	 si
25	 4	 0	 x	 LineStimuli//1.5/stimNo146r0c0v1.5.jpg	 r	 7.577	 GoodTrial	 allStim	 si
26	 4	 1	 left	 LineStimuli//1.8/stimNo106r13c9v1.8.jpg	 l	 1.857	 GoodTrial	 allStim	 si
27	 4	 1	 left	 LineStimuli//2.3/stimNo83r14c4v2.3.jpg	 l	 1.543	 GoodTrial	 allStim	 si
28	 4	 0	 x	 LineStimuli//2.8/stimNo156r0c0v2.8.jpg	 r	 2.063	 GoodTrial	 allStim	 si
29	 4	 0	 x	 LineStimuli//3.3/stimNo140r0c0v3.3.jpg	 r	 1.575	 GoodTrial	 allStim	 si
30	 4	 0	 x	 LineStimuli//3.8/stimNo132r0c0v3.8.jpg	 r	 1.513	 GoodTrial	 allStim	 si
31	 4	 1	 right	 LineStimuli//4.3/stimNo91r9c13v4.3.jpg	 l	 1.723	 GoodTrial	 allStim	 si
32	 4	 0	 x	 LineStimuli//4.3/stimNo138r0c0v4.3.jpg	 r	 1.521	 GoodTrial	 allStim	 si
33	 4	 1	 left	 LineStimuli//3.8/stimNo97r15c9v3.8.jpg	 l	 1.501	 GoodTrial	 allStim	 si
34	 4	 1	 left	 LineStimuli//3.3/stimNo109r15c7v3.3.jpg	 l	 1.493	 GoodTrial	 allStim	 si
35	 4	 1	 left	 LineStimuli//2.8/stimNo113r9c5v2.8.jpg	 l	 1.473	 GoodTrial	 allStim	 si
36	 4	 0	 x	 LineStimuli//2.3/stimNo127r0c0v2.3.jpg	 r	 2.684	 GoodTrial	 allStim	 si
37	 4	 1	 right	 LineStimuli//1.8/stimNo112r6c15v1.8.jpg	 l	 1.669	 GoodTrial	 allStim	 si
38	 4	 0	 x	 LineStimuli//1.5/stimNo138r0c0v1.5.jpg	 r	 5.941	 GoodTrial	 allStim	 si
39	 4	 0	 x	 LineStimuli//1.5/stimNo135r0c0v1.5.jpg	 r	 6.639	 GoodTrial	 allStim	 si
40	 4	 0	 x	 LineStimuli//1.8/stimNo141r0c0v1.8.jpg	 r	 6.503	 GoodTrial	 allStim	 si
41	 4	 0	 x	 LineStimuli//2.3/stimNo134r0c0v2.3.jpg	 r	 2.367	 GoodTrial	 allStim	 si
42	 4	 0	 x	 LineStimuli//2.8/stimNo139r0c0v2.8.jpg	 r	 1.665	 GoodTrial	 allStim	 si
43	 4	 1	 right	 LineStimuli//3.3/stimNo107r2c17v3.3.jpg	 l	 1.686	 GoodTrial	 allStim	 si
44	 4	 1	 right	 LineStimuli//3.8/stimNo112r12c16v3.8.jpg	 l	 1.471	 GoodTrial	 allStim	 si
45	 4	 1	 left	 LineStimuli//4.3/stimNo83r4c2v4.3.jpg	 l	 1.541	 GoodTrial	 allStim	 si
46	 4	 1	 left	 LineStimuli//4.3/stimNo95r11c9v4.3.jpg	 l	 1.488	 GoodTrial	 allStim	 si
47	 4	 0	 x	 LineStimuli//3.8/stimNo127r0c0v3.8.jpg	 r	 1.721	 GoodTrial	 allStim	 si
48	 4	 0	 x	 LineStimuli//3.3/stimNo157r0c0v3.3.jpg	 r	 1.477	 GoodTrial	 allStim	 si
49	 4	 1	 right	 LineStimuli//2.8/stimNo101r12c16v2.8.jpg	 l	 1.535	 GoodTrial	 allStim	 si
50	 4	 1	 left	 LineStimuli//2.3/stimNo96r3c3v2.3.jpg	 l	 1.507	 GoodTrial	 allStim	 si
1	 5	 1	 left	 LineStimuli//3.3/stimNo83r8c3v3.3.jpg	 l	 1.484	 GoodTrial	 allStim	 si
2	 5	 1	 right	 LineStimuli//3.8/stimNo94r6c17v3.8.jpg	 l	 1.592	 GoodTrial	 allStim	 si
3	 5	 0	 x	 LineStimuli//4.3/stimNo125r0c0v4.3.jpg	 r	 1.658	 GoodTrial	 allStim	 si
4	 5	 0	 x	 LineStimuli//4.3/stimNo127r0c0v4.3.jpg	 r	 1.592	 GoodTrial	 allStim	 si
5	 5	 0	 x	 LineStimuli//3.8/stimNo147r0c0v3.8.jpg	 r	 1.509	 GoodTrial	 allStim	 si
6	 5	 0	 x	 LineStimuli//3.3/stimNo143r0c0v3.3.jpg	 r	 1.556	 GoodTrial	 allStim	 si
7	 5	 0	 x	 LineStimuli//2.8/stimNo146r0c0v2.8.jpg	 r	 1.606	 GoodTrial	 allStim	 si
8	 5	 1	 left	 LineStimuli//2.3/stimNo117r11c8v2.3.jpg	 l	 1.489	 GoodTrial	 allStim	 si
9	 5	 1	 left	 LineStimuli//1.8/stimNo103r15c10v1.8.jpg	 l	 2.176	 GoodTrial	 allStim	 si
10	 5	 1	 left	 LineStimuli//1.5/stimNo110r7c3v1.5.jpg	 l	 3.052	 GoodTrial	 allStim	 si
11	 5	 0	 x	 LineStimuli//1.5/stimNo146r0c0v1.5.jpg	 r	 3.593	 GoodTrial	 allStim	 si
12	 5	 0	 x	 LineStimuli//1.8/stimNo151r0c0v1.8.jpg	 r	 4.842	 GoodTrial	 allStim	 si
13	 5	 0	 x	 LineStimuli//2.3/stimNo130r0c0v2.3.jpg	 r	 4.342	 GoodTrial	 allStim	 si
14	 5	 1	 right	 LineStimuli//2.8/stimNo85r4c15v2.8.jpg	 l	 1.616	 GoodTrial	 allStim	 si
15	 5	 1	 right	 LineStimuli//3.3/stimNo99r6c17v3.3.jpg	 l	 1.402	 GoodTrial	 allStim	 si
16	 5	 1	 left	 LineStimuli//3.8/stimNo108r3c6v3.8.jpg	 l	 1.420	 GoodTrial	 allStim	 si
17	 5	 0	 x	 LineStimuli//4.3/stimNo152r0c0v4.3.jpg	 r	 1.608	 GoodTrial	 allStim	 si
18	 5	 0	 x	 LineStimuli//4.3/stimNo125r0c0v4.3.jpg	 r	 1.464	 GoodTrial	 allStim	 si
19	 5	 1	 right	 LineStimuli//3.8/stimNo112r12c16v3.8.jpg	 l	 1.596	 GoodTrial	 allStim	 si
20	 5	 1	 left	 LineStimuli//3.3/stimNo106r9c9v3.3.jpg	 l	 1.429	 GoodTrial	 allStim	 si
21	 5	 1	 left	 LineStimuli//2.8/stimNo89r12c4v2.8.jpg	 l	 1.400	 GoodTrial	 allStim	 si
22	 5	 1	 left	 LineStimuli//2.3/stimNo117r11c8v2.3.jpg	 l	 1.640	 GoodTrial	 allStim	 si
23	 5	 1	 left	 LineStimuli//1.8/stimNo105r6c5v1.8.jpg	 l	 1.504	 GoodTrial	 allStim	 si
24	 5	 0	 x	 LineStimuli//1.5/stimNo121r0c0v1.5.jpg	 r	 4.469	 GoodTrial	 allStim	 si
25	 5	 1	 right	 LineStimuli//1.5/stimNo92r6c18v1.5.jpg	 l	 4.849	 GoodTrial	 allStim	 si
26	 5	 1	 left	 LineStimuli//1.8/stimNo98r15c5v1.8.jpg	 l	 2.658	 GoodTrial	 allStim	 si
27	 5	 1	 right	 LineStimuli//2.3/stimNo105r14c14v2.3.jpg	 l	 1.749	 GoodTrial	 allStim	 si
28	 5	 0	 x	 LineStimuli//2.8/stimNo127r0c0v2.8.jpg	 r	 2.048	 GoodTrial	 allStim	 si
29	 5	 1	 right	 LineStimuli//3.3/stimNo84r6c16v3.3.jpg	 l	 1.522	 GoodTrial	 allStim	 si
30	 5	 1	 left	 LineStimuli//3.8/stimNo100r13c6v3.8.jpg	 l	 1.464	 GoodTrial	 allStim	 si
31	 5	 1	 right	 LineStimuli//4.3/stimNo96r4c19v4.3.jpg	 l	 1.480	 GoodTrial	 allStim	 si
32	 5	 0	 x	 LineStimuli//4.3/stimNo132r0c0v4.3.jpg	 r	 1.603	 GoodTrial	 allStim	 si
33	 5	 1	 right	 LineStimuli//3.8/stimNo117r6c17v3.8.jpg	 l	 1.350	 GoodTrial	 allStim	 si
34	 5	 1	 right	 LineStimuli//3.3/stimNo87r15c13v3.3.jpg	 l	 1.737	 GoodTrial	 allStim	 si
35	 5	 0	 x	 LineStimuli//2.8/stimNo157r0c0v2.8.jpg	 r	 1.976	 GoodTrial	 allStim	 si
36	 5	 0	 x	 LineStimuli//2.3/stimNo137r0c0v2.3.jpg	 r	 1.823	 GoodTrial	 allStim	 si
37	 5	 0	 x	 LineStimuli//1.8/stimNo135r0c0v1.8.jpg	 r	 3.495	 GoodTrial	 allStim	 si
38	 5	 0	 x	 LineStimuli//1.5/stimNo157r0c0v1.5.jpg	 r	 4.357	 GoodTrial	 allStim	 si
39	 5	 0	 x	 LineStimuli//1.5/stimNo131r0c0v1.5.jpg	 r	 4.094	 GoodTrial	 allStim	 si
40	 5	 0	 x	 LineStimuli//1.8/stimNo145r0c0v1.8.jpg	 r	 4.177	 GoodTrial	 allStim	 si
41	 5	 1	 left	 LineStimuli//2.3/stimNo108r15c6v2.3.jpg	 l	 1.711	 GoodTrial	 allStim	 si
42	 5	 1	 left	 LineStimuli//2.8/stimNo104r8c6v2.8.jpg	 l	 1.515	 GoodTrial	 allStim	 si
43	 5	 0	 x	 LineStimuli//3.3/stimNo154r0c0v3.3.jpg	 r	 1.677	 GoodTrial	 allStim	 si
44	 5	 0	 x	 LineStimuli//3.8/stimNo141r0c0v3.8.jpg	 r	 1.561	 GoodTrial	 allStim	 si
45	 5	 0	 x	 LineStimuli//4.3/stimNo145r0c0v4.3.jpg	 r	 1.493	 GoodTrial	 allStim	 si
46	 5	 1	 right	 LineStimuli//4.3/stimNo120r8c18v4.3.jpg	 l	 1.453	 GoodTrial	 allStim	 si
47	 5	 1	 left	 LineStimuli//3.8/stimNo93r8c2v3.8.jpg	 l	 1.605	 GoodTrial	 allStim	 si
48	 5	 0	 x	 LineStimuli//3.3/stimNo127r0c0v3.3.jpg	 r	 1.571	 GoodTrial	 allStim	 si
49	 5	 1	 right	 LineStimuli//2.8/stimNo115r9c14v2.8.jpg	 l	 1.437	 GoodTrial	 allStim	 si
50	 5	 1	 right	 LineStimuli//2.3/stimNo91r11c20v2.3.jpg	 l	 1.455	 GoodTrial	 allStim	 si
1	 6	 1	 left	 LineStimuli//3.3/stimNo103r6c6v3.3.jpg	 l	 1.488	 GoodTrial	 allStim	 si
2	 6	 0	 x	 LineStimuli//3.8/stimNo139r0c0v3.8.jpg	 r	 1.543	 GoodTrial	 allStim	 si
3	 6	 0	 x	 LineStimuli//4.3/stimNo127r0c0v4.3.jpg	 r	 1.478	 GoodTrial	 allStim	 si
4	 6	 1	 right	 LineStimuli//4.3/stimNo99r14c18v4.3.jpg	 l	 1.416	 GoodTrial	 allStim	 si
5	 6	 1	 left	 LineStimuli//3.8/stimNo116r7c3v3.8.jpg	 l	 1.513	 GoodTrial	 allStim	 si
6	 6	 0	 x	 LineStimuli//3.3/stimNo141r0c0v3.3.jpg	 r	 1.520	 GoodTrial	 allStim	 si
7	 6	 0	 x	 LineStimuli//2.8/stimNo158r0c0v2.8.jpg	 r	 1.791	 GoodTrial	 allStim	 si
8	 6	 0	 x	 LineStimuli//2.3/stimNo150r0c0v2.3.jpg	 r	 1.784	 GoodTrial	 allStim	 si
9	 6	 0	 x	 LineStimuli//1.8/stimNo135r0c0v1.8.jpg	 r	 3.773	 GoodTrial	 allStim	 si
10	 6	 0	 x	 LineStimuli//1.5/stimNo134r0c0v1.5.jpg	 r	 3.647	 GoodTrial	 allStim	 si
11	 6	 1	 left	 LineStimuli//1.5/stimNo91r9c3v1.5.jpg	 l	 3.516	 GoodTrial	 allStim	 si
12	 6	 0	 x	 LineStimuli//1.8/stimNo151r0c0v1.8.jpg	 r	 2.680	 GoodTrial	 allStim	 si
13	 6	 1	 right	 LineStimuli//2.3/stimNo85r4c15v2.3.jpg	 l	 1.480	 GoodTrial	 allStim	 si
14	 6	 1	 right	 LineStimuli//2.8/stimNo101r12c16v2.8.jpg	 l	 1.480	 GoodTrial	 allStim	 si
15	 6	 0	 x	 LineStimuli//3.3/stimNo130r0c0v3.3.jpg	 r	 1.610	 GoodTrial	 allStim	 si
16	 6	 0	 x	 LineStimuli//3.8/stimNo139r0c0v3.8.jpg	 r	 1.508	 GoodTrial	 allStim	 si
17	 6	 0	 x	 LineStimuli//4.3/stimNo130r0c0v4.3.jpg	 r	 1.428	 GoodTrial	 allStim	 si
18	 6	 1	 right	 LineStimuli//4.3/stimNo81r10c14v4.3.jpg	 l	 1.386	 GoodTrial	 allStim	 si
19	 6	 0	 x	 LineStimuli//3.8/stimNo151r0c0v3.8.jpg	 r	 1.536	 GoodTrial	 allStim	 si
20	 6	 1	 left	 LineStimuli//3.3/stimNo119r15c7v3.3.jpg	 l	 1.514	 GoodTrial	 allStim	 si
21	 6	 1	 left	 LineStimuli//2.8/stimNo89r12c4v2.8.jpg	 l	 1.508	 GoodTrial	 allStim	 si
22	 6	 1	 right	 LineStimuli//2.3/stimNo120r4c17v2.3.jpg	 l	 1.448	 GoodTrial	 allStim	 si
23	 6	 1	 left	 LineStimuli//1.8/stimNo116r4c7v1.8.jpg	 l	 1.570	 GoodTrial	 allStim	 si
24	 6	 1	 right	 LineStimuli//1.5/stimNo104r5c18v1.5.jpg	 r	 3.832	 GoodTrial	 allStim	 si
25	 6	 1	 right	 LineStimuli//1.5/stimNo118r9c20v1.5.jpg	 r	 4.241	 GoodTrial	 allStim	 si
26	 6	 1	 left	 LineStimuli//1.8/stimNo91r14c4v1.8.jpg	 l	 1.638	 GoodTrial	 allStim	 si
27	 6	 0	 x	 LineStimuli//2.3/stimNo144r0c0v2.3.jpg	 r	 2.283	 GoodTrial	 allStim	 si
28	 6	 0	 x	 LineStimuli//2.8/stimNo123r0c0v2.8.jpg	 r	 1.701	 GoodTrial	 allStim	 si
29	 6	 0	 x	 LineStimuli//3.3/stimNo146r0c0v3.3.jpg	 r	 1.776	 GoodTrial	 allStim	 si
30	 6	 1	 right	 LineStimuli//3.8/stimNo112r12c16v3.8.jpg	 l	 1.529	 GoodTrial	 allStim	 si
31	 6	 0	 x	 LineStimuli//4.3/stimNo141r0c0v4.3.jpg	 r	 1.602	 GoodTrial	 allStim	 si
32	 6	 0	 x	 LineStimuli//4.3/stimNo144r0c0v4.3.jpg	 r	 1.410	 GoodTrial	 allStim	 si
33	 6	 1	 left	 LineStimuli//3.8/stimNo119r9c8v3.8.jpg	 l	 1.448	 GoodTrial	 allStim	 si
34	 6	 0	 x	 LineStimuli//3.3/stimNo132r0c0v3.3.jpg	 r	 1.560	 GoodTrial	 allStim	 si
35	 6	 0	 x	 LineStimuli//2.8/stimNo124r0c0v2.8.jpg	 r	 1.594	 GoodTrial	 allStim	 si
36	 6	 1	 left	 LineStimuli//2.3/stimNo81r4c3v2.3.jpg	 l	 1.447	 GoodTrial	 allStim	 si
37	 6	 0	 x	 LineStimuli//1.8/stimNo155r0c0v1.8.jpg	 r	 3.192	 GoodTrial	 allStim	 si
38	 6	 0	 x	 LineStimuli//1.5/stimNo131r0c0v1.5.jpg	 r	 6.811	 GoodTrial	 allStim	 si
39	 6	 1	 left	 LineStimuli//1.5/stimNo96r15c4v1.5.jpg	 l	 2.702	 GoodTrial	 allStim	 si
40	 6	 1	 left	 LineStimuli//1.8/stimNo94r13c8v1.8.jpg	 l	 1.769	 GoodTrial	 allStim	 si
41	 6	 0	 x	 LineStimuli//2.3/stimNo150r0c0v2.3.jpg	 r	 1.909	 GoodTrial	 allStim	 si
42	 6	 1	 left	 LineStimuli//2.8/stimNo94r13c7v2.8.jpg	 l	 1.561	 GoodTrial	 allStim	 si
43	 6	 0	 x	 LineStimuli//3.3/stimNo130r0c0v3.3.jpg	 r	 1.439	 GoodTrial	 allStim	 si
44	 6	 0	 x	 LineStimuli//3.8/stimNo152r0c0v3.8.jpg	 r	 1.392	 GoodTrial	 allStim	 si
45	 6	 0	 x	 LineStimuli//4.3/stimNo140r0c0v4.3.jpg	 r	 1.413	 GoodTrial	 allStim	 si
46	 6	 0	 x	 LineStimuli//4.3/stimNo157r0c0v4.3.jpg	 r	 1.448	 GoodTrial	 allStim	 si
47	 6	 0	 x	 LineStimuli//3.8/stimNo135r0c0v3.8.jpg	 r	 1.493	 GoodTrial	 allStim	 si
48	 6	 0	 x	 LineStimuli//3.3/stimNo149r0c0v3.3.jpg	 r	 1.411	 GoodTrial	 allStim	 si
49	 6	 0	 x	 LineStimuli//2.8/stimNo149r0c0v2.8.jpg	 r	 1.705	 GoodTrial	 allStim	 si
50	 6	 1	 left	 LineStimuli//2.3/stimNo116r2c2v2.3.jpg	 r	 1.563	 GoodTrial	 allStim	 si
1	 7	 1	 left	 LineStimuli//3.3/stimNo95r15c8v3.3.jpg	 l	 1.545	 GoodTrial	 allStim	 si
2	 7	 0	 x	 LineStimuli//3.8/stimNo130r0c0v3.8.jpg	 r	 1.495	 GoodTrial	 allStim	 si
3	 7	 1	 left	 LineStimuli//4.3/stimNo107r2c8v4.3.jpg	 l	 1.513	 GoodTrial	 allStim	 si
4	 7	 1	 left	 LineStimuli//4.3/stimNo111r10c9v4.3.jpg	 l	 1.439	 GoodTrial	 allStim	 si
5	 7	 1	 right	 LineStimuli//3.8/stimNo102r10c17v3.8.jpg	 l	 1.481	 GoodTrial	 allStim	 si
6	 7	 0	 x	 LineStimuli//3.3/stimNo144r0c0v3.3.jpg	 r	 1.577	 GoodTrial	 allStim	 si
7	 7	 0	 x	 LineStimuli//2.8/stimNo121r0c0v2.8.jpg	 r	 1.857	 GoodTrial	 allStim	 si
8	 7	 1	 right	 LineStimuli//2.3/stimNo90r14c21v2.3.jpg	 l	 1.419	 GoodTrial	 allStim	 si
9	 7	 0	 x	 LineStimuli//1.8/stimNo138r0c0v1.8.jpg	 r	 2.241	 GoodTrial	 allStim	 si
10	 7	 0	 x	 LineStimuli//1.5/stimNo149r0c0v1.5.jpg	 r	 5.453	 GoodTrial	 allStim	 si
11	 7	 1	 right	 LineStimuli//1.5/stimNo118r9c20v1.5.jpg	 r	 6.117	 GoodTrial	 allStim	 si
12	 7	 1	 right	 LineStimuli//1.8/stimNo83r6c13v1.8.jpg	 r	 5.699	 GoodTrial	 allStim	 si
13	 7	 1	 right	 LineStimuli//2.3/stimNo101r8c14v2.3.jpg	 l	 1.802	 GoodTrial	 allStim	 si
14	 7	 1	 left	 LineStimuli//2.8/stimNo91r2c3v2.8.jpg	 l	 1.591	 GoodTrial	 allStim	 si
15	 7	 0	 x	 LineStimuli//3.3/stimNo153r0c0v3.3.jpg	 r	 1.597	 GoodTrial	 allStim	 si
16	 7	 0	 x	 LineStimuli//3.8/stimNo130r0c0v3.8.jpg	 r	 1.602	 GoodTrial	 allStim	 si
17	 7	 0	 x	 LineStimuli//4.3/stimNo122r0c0v4.3.jpg	 r	 1.413	 GoodTrial	 allStim	 si
18	 7	 1	 right	 LineStimuli//4.3/stimNo92r2c20v4.3.jpg	 l	 1.512	 GoodTrial	 allStim	 si
19	 7	 0	 x	 LineStimuli//3.8/stimNo143r0c0v3.8.jpg	 r	 1.551	 GoodTrial	 allStim	 si
20	 7	 1	 left	 LineStimuli//3.3/stimNo104r4c4v3.3.jpg	 l	 1.465	 GoodTrial	 allStim	 si
21	 7	 1	 left	 LineStimuli//2.8/stimNo89r12c4v2.8.jpg	 l	 1.550	 GoodTrial	 allStim	 si
22	 7	 0	 x	 LineStimuli//2.3/stimNo153r0c0v2.3.jpg	 r	 1.847	 GoodTrial	 allStim	 si
23	 7	 0	 x	 LineStimuli//1.8/stimNo141r0c0v1.8.jpg	 r	 3.162	 GoodTrial	 allStim	 si
24	 7	 0	 x	 LineStimuli//1.5/stimNo131r0c0v1.5.jpg	 l	 4.736	 GoodTrial	 allStim	 si
25	 7	 1	 left	 LineStimuli//1.5/stimNo117r7c8v1.5.jpg	 l	 1.866	 GoodTrial	 allStim	 si
26	 7	 1	 left	 LineStimuli//1.8/stimNo94r13c8v1.8.jpg	 l	 1.809	 GoodTrial	 allStim	 si
27	 7	 1	 left	 LineStimuli//2.3/stimNo94r8c9v2.3.jpg	 l	 1.508	 GoodTrial	 allStim	 si
28	 7	 0	 x	 LineStimuli//2.8/stimNo148r0c0v2.8.jpg	 r	 1.800	 GoodTrial	 allStim	 si
29	 7	 1	 right	 LineStimuli//3.3/stimNo98r4c21v3.3.jpg	 l	 1.475	 GoodTrial	 allStim	 si
30	 7	 0	 x	 LineStimuli//3.8/stimNo130r0c0v3.8.jpg	 r	 1.834	 GoodTrial	 allStim	 si
31	 7	 0	 x	 LineStimuli//4.3/stimNo125r0c0v4.3.jpg	 r	 1.450	 GoodTrial	 allStim	 si
32	 7	 1	 left	 LineStimuli//4.3/stimNo100r8c3v4.3.jpg	 l	 1.443	 GoodTrial	 allStim	 si
33	 7	 0	 x	 LineStimuli//3.8/stimNo131r0c0v3.8.jpg	 r	 1.485	 GoodTrial	 allStim	 si
34	 7	 0	 x	 LineStimuli//3.3/stimNo133r0c0v3.3.jpg	 r	 1.887	 GoodTrial	 allStim	 si
35	 7	 1	 right	 LineStimuli//2.8/stimNo112r13c17v2.8.jpg	 l	 1.509	 GoodTrial	 allStim	 si
36	 7	 1	 right	 LineStimuli//2.3/stimNo101r8c14v2.3.jpg	 r	 2.062	 GoodTrial	 allStim	 si
37	 7	 1	 left	 LineStimuli//1.8/stimNo91r14c4v1.8.jpg	 l	 1.856	 GoodTrial	 allStim	 si
38	 7	 1	 left	 LineStimuli//1.5/stimNo88r6c7v1.5.jpg	 l	 3.202	 GoodTrial	 allStim	 si
39	 7	 1	 left	 LineStimuli//1.5/stimNo94r10c6v1.5.jpg	 l	 2.599	 GoodTrial	 allStim	 si
40	 7	 0	 x	 LineStimuli//1.8/stimNo158r0c0v1.8.jpg	 r	 5.094	 GoodTrial	 allStim	 si
41	 7	 1	 right	 LineStimuli//2.3/stimNo120r4c17v2.3.jpg	 l	 1.547	 GoodTrial	 allStim	 si
42	 7	 0	 x	 LineStimuli//2.8/stimNo156r0c0v2.8.jpg	 r	 1.649	 GoodTrial	 allStim	 si
43	 7	 0	 x	 LineStimuli//3.3/stimNo147r0c0v3.3.jpg	 r	 1.570	 GoodTrial	 allStim	 si
44	 7	 0	 x	 LineStimuli//3.8/stimNo143r0c0v3.8.jpg	 r	 1.600	 GoodTrial	 allStim	 si
45	 7	 0	 x	 LineStimuli//4.3/stimNo142r0c0v4.3.jpg	 r	 1.524	 GoodTrial	 allStim	 si
46	 7	 0	 x	 LineStimuli//4.3/stimNo149r0c0v4.3.jpg	 r	 1.464	 GoodTrial	 allStim	 si
47	 7	 1	 left	 LineStimuli//3.8/stimNo105r2c6v3.8.jpg	 l	 1.440	 GoodTrial	 allStim	 si
48	 7	 1	 right	 LineStimuli//3.3/stimNo114r11c21v3.3.jpg	 l	 1.466	 GoodTrial	 allStim	 si
49	 7	 1	 right	 LineStimuli//2.8/stimNo81r8c14v2.8.jpg	 l	 1.784	 GoodTrial	 allStim	 si
50	 7	 1	 left	 LineStimuli//2.3/stimNo83r14c4v2.3.jpg	 l	 1.560	 GoodTrial	 allStim	 si
