Trial	Block	Target_pr	Target_side	Name	Key	RT	Message	Block_Type	Condition
1	 1	 1	 right	 LineStimuli//3.3/stimNo84r6c16v3.3.jpg	 l	 2.366	 GoodTrial	 allStim	 si
2	 1	 0	 x	 LineStimuli//3.8/stimNo134r0c0v3.8.jpg	 r	 13.807	 GoodTrial	 allStim	 si
3	 1	 1	 right	 LineStimuli//4.3/stimNo109r15c15v4.3.jpg	 l	 5.367	 GoodTrial	 allStim	 si
4	 1	 0	 x	 LineStimuli//4.3/stimNo143r0c0v4.3.jpg	 r	 18.667	 GoodTrial	 allStim	 si
5	 1	 0	 x	 LineStimuli//3.8/stimNo123r0c0v3.8.jpg	 r	 24.017	 GoodTrial	 allStim	 si
6	 1	 1	 right	 LineStimuli//3.3/stimNo87r15c13v3.3.jpg	 l	 7.015	 GoodTrial	 allStim	 si
7	 1	 1	 left	 LineStimuli//2.8/stimNo104r8c6v2.8.jpg	 r	 36.721	 GoodTrial	 allStim	 si
8	 1	 0	 x	 LineStimuli//2.3/stimNo158r0c0v2.3.jpg	 r	 37.866	 GoodTrial	 allStim	 si
9	 1	 1	 right	 LineStimuli//1.8/stimNo82r7c18v1.8.jpg	 r	 28.084	 GoodTrial	 allStim	 si
10	 1	 0	 x	 LineStimuli//1.5/stimNo151r0c0v1.5.jpg	 x	 0.000	 GoodTrial	 allStim	 si
11	 1	 0	 x	 LineStimuli//1.5/stimNo141r0c0v1.5.jpg	 r	 42.169	 GoodTrial	 allStim	 si
12	 1	 0	 x	 LineStimuli//1.8/stimNo154r0c0v1.8.jpg	 r	 52.003	 GoodTrial	 allStim	 si
13	 1	 1	 right	 LineStimuli//2.3/stimNo110r15c19v2.3.jpg	 l	 3.570	 GoodTrial	 allStim	 si
14	 1	 1	 left	 LineStimuli//2.8/stimNo116r4c7v2.8.jpg	 l	 2.791	 GoodTrial	 allStim	 si
15	 1	 0	 x	 LineStimuli//3.3/stimNo143r0c0v3.3.jpg	 r	 27.637	 GoodTrial	 allStim	 si
16	 1	 0	 x	 LineStimuli//3.8/stimNo142r0c0v3.8.jpg	 r	 26.813	 GoodTrial	 allStim	 si
17	 1	 1	 left	 LineStimuli//4.3/stimNo83r4c2v4.3.jpg	 l	 5.770	 GoodTrial	 allStim	 si
18	 1	 0	 x	 LineStimuli//4.3/stimNo149r0c0v4.3.jpg	 r	 20.312	 GoodTrial	 allStim	 si
19	 1	 0	 x	 LineStimuli//3.8/stimNo151r0c0v3.8.jpg	 r	 17.574	 GoodTrial	 allStim	 si
20	 1	 1	 left	 LineStimuli//3.3/stimNo106r9c9v3.3.jpg	 l	 11.489	 GoodTrial	 allStim	 si
21	 1	 1	 right	 LineStimuli//2.8/stimNo106r13c20v2.8.jpg	 l	 11.129	 GoodTrial	 allStim	 si
22	 1	 0	 x	 LineStimuli//2.3/stimNo138r0c0v2.3.jpg	 r	 30.381	 GoodTrial	 allStim	 si
23	 1	 0	 x	 LineStimuli//1.8/stimNo129r0c0v1.8.jpg	 r	 34.995	 GoodTrial	 allStim	 si
24	 1	 0	 x	 LineStimuli//1.5/stimNo146r0c0v1.5.jpg	 r	 36.871	 GoodTrial	 allStim	 si
25	 1	 1	 left	 LineStimuli//1.5/stimNo120r14c2v1.5.jpg	 l	 10.575	 GoodTrial	 allStim	 si
26	 1	 1	 left	 LineStimuli//1.8/stimNo98r15c5v1.8.jpg	 l	 6.043	 GoodTrial	 allStim	 si
27	 1	 1	 right	 LineStimuli//2.3/stimNo89r8c21v2.3.jpg	 l	 34.776	 GoodTrial	 allStim	 si
28	 1	 0	 x	 LineStimuli//2.8/stimNo125r0c0v2.8.jpg	 r	 31.544	 GoodTrial	 allStim	 si
29	 1	 0	 x	 LineStimuli//3.3/stimNo134r0c0v3.3.jpg	 r	 33.770	 GoodTrial	 allStim	 si
30	 1	 0	 x	 LineStimuli//3.8/stimNo135r0c0v3.8.jpg	 r	 32.205	 GoodTrial	 allStim	 si
31	 1	 1	 left	 LineStimuli//4.3/stimNo101r5c5v4.3.jpg	 l	 16.761	 GoodTrial	 allStim	 si
32	 1	 0	 x	 LineStimuli//4.3/stimNo160r0c0v4.3.jpg	 r	 34.851	 GoodTrial	 allStim	 si
33	 1	 0	 x	 LineStimuli//3.8/stimNo151r0c0v3.8.jpg	 r	 25.045	 GoodTrial	 allStim	 si
34	 1	 0	 x	 LineStimuli//3.3/stimNo122r0c0v3.3.jpg	 r	 32.901	 GoodTrial	 allStim	 si
35	 1	 1	 left	 LineStimuli//2.8/stimNo87r11c8v2.8.jpg	 l	 9.326	 GoodTrial	 allStim	 si
36	 1	 1	 left	 LineStimuli//2.3/stimNo113r3c8v2.3.jpg	 l	 25.686	 GoodTrial	 allStim	 si
37	 1	 0	 x	 LineStimuli//1.8/stimNo125r0c0v1.8.jpg	 r	 46.782	 GoodTrial	 allStim	 si
38	 1	 0	 x	 LineStimuli//1.5/stimNo137r0c0v1.5.jpg	 r	 41.375	 GoodTrial	 allStim	 si
39	 1	 0	 x	 LineStimuli//1.5/stimNo144r0c0v1.5.jpg	 r	 48.147	 GoodTrial	 allStim	 si
40	 1	 1	 right	 LineStimuli//1.8/stimNo104r3c21v1.8.jpg	 x	 0.000	 GoodTrial	 allStim	 si
41	 1	 1	 left	 LineStimuli//2.3/stimNo116r2c2v2.3.jpg	 l	 8.560	 GoodTrial	 allStim	 si
42	 1	 1	 left	 LineStimuli//2.8/stimNo87r11c8v2.8.jpg	 l	 3.080	 GoodTrial	 allStim	 si
43	 1	 1	 right	 LineStimuli//3.3/stimNo102r13c13v3.3.jpg	 l	 2.827	 GoodTrial	 allStim	 si
44	 1	 0	 x	 LineStimuli//3.8/stimNo148r0c0v3.8.jpg	 r	 16.240	 GoodTrial	 allStim	 si
45	 1	 0	 x	 LineStimuli//4.3/stimNo159r0c0v4.3.jpg	 r	 8.962	 GoodTrial	 allStim	 si
46	 1	 0	 x	 LineStimuli//4.3/stimNo135r0c0v4.3.jpg	 r	 11.616	 GoodTrial	 allStim	 si
47	 1	 1	 right	 LineStimuli//3.8/stimNo92r6c21v3.8.jpg	 l	 1.864	 GoodTrial	 allStim	 si
48	 1	 1	 left	 LineStimuli//3.3/stimNo117r2c5v3.3.jpg	 l	 1.718	 GoodTrial	 allStim	 si
49	 1	 1	 right	 LineStimuli//2.8/stimNo106r13c20v2.8.jpg	 l	 2.130	 GoodTrial	 allStim	 si
50	 1	 0	 x	 LineStimuli//2.3/stimNo157r0c0v2.3.jpg	 r	 24.054	 GoodTrial	 allStim	 si
1	 2	 1	 left	 LineStimuli//3.3/stimNo108r13c2v3.3.jpg	 l	 5.688	 GoodTrial	 allStim	 si
2	 2	 0	 x	 LineStimuli//3.8/stimNo155r0c0v3.8.jpg	 r	 11.297	 GoodTrial	 allStim	 si
3	 2	 1	 right	 LineStimuli//4.3/stimNo112r10c16v4.3.jpg	 l	 1.772	 GoodTrial	 allStim	 si
4	 2	 0	 x	 LineStimuli//4.3/stimNo150r0c0v4.3.jpg	 r	 5.392	 GoodTrial	 allStim	 si
5	 2	 0	 x	 LineStimuli//3.8/stimNo147r0c0v3.8.jpg	 r	 6.202	 GoodTrial	 allStim	 si
6	 2	 1	 left	 LineStimuli//3.3/stimNo90r2c9v3.3.jpg	 l	 2.337	 GoodTrial	 allStim	 si
7	 2	 0	 x	 LineStimuli//2.8/stimNo141r0c0v2.8.jpg	 r	 20.018	 GoodTrial	 allStim	 si
8	 2	 0	 x	 LineStimuli//2.3/stimNo133r0c0v2.3.jpg	 r	 24.960	 GoodTrial	 allStim	 si
9	 2	 0	 x	 LineStimuli//1.8/stimNo156r0c0v1.8.jpg	 r	 20.318	 GoodTrial	 allStim	 si
10	 2	 0	 x	 LineStimuli//1.5/stimNo156r0c0v1.5.jpg	 r	 43.388	 GoodTrial	 allStim	 si
11	 2	 1	 left	 LineStimuli//1.5/stimNo99r10c3v1.5.jpg	 l	 15.663	 GoodTrial	 allStim	 si
12	 2	 1	 left	 LineStimuli//1.8/stimNo107r5c4v1.8.jpg	 l	 1.889	 GoodTrial	 allStim	 si
13	 2	 1	 right	 LineStimuli//2.3/stimNo90r14c21v2.3.jpg	 r	 21.664	 GoodTrial	 allStim	 si
14	 2	 1	 right	 LineStimuli//2.8/stimNo118r5c16v2.8.jpg	 l	 2.279	 GoodTrial	 allStim	 si
15	 2	 0	 x	 LineStimuli//3.3/stimNo144r0c0v3.3.jpg	 r	 19.908	 GoodTrial	 allStim	 si
16	 2	 1	 right	 LineStimuli//3.8/stimNo90r8c17v3.8.jpg	 l	 1.793	 GoodTrial	 allStim	 si
17	 2	 0	 x	 LineStimuli//4.3/stimNo150r0c0v4.3.jpg	 r	 9.903	 GoodTrial	 allStim	 si
18	 2	 0	 x	 LineStimuli//4.3/stimNo126r0c0v4.3.jpg	 r	 8.801	 GoodTrial	 allStim	 si
19	 2	 0	 x	 LineStimuli//3.8/stimNo142r0c0v3.8.jpg	 r	 12.552	 GoodTrial	 allStim	 si
20	 2	 0	 x	 LineStimuli//3.3/stimNo139r0c0v3.3.jpg	 r	 11.667	 GoodTrial	 allStim	 si
21	 2	 1	 right	 LineStimuli//2.8/stimNo100r8c13v2.8.jpg	 l	 2.856	 GoodTrial	 allStim	 si
22	 2	 1	 right	 LineStimuli//2.3/stimNo84r15c14v2.3.jpg	 l	 4.168	 GoodTrial	 allStim	 si
23	 2	 0	 x	 LineStimuli//1.8/stimNo130r0c0v1.8.jpg	 r	 28.076	 GoodTrial	 allStim	 si
24	 2	 0	 x	 LineStimuli//1.5/stimNo138r0c0v1.5.jpg	 r	 27.052	 GoodTrial	 allStim	 si
25	 2	 0	 x	 LineStimuli//1.5/stimNo142r0c0v1.5.jpg	 r	 24.704	 GoodTrial	 allStim	 si
26	 2	 1	 left	 LineStimuli//1.8/stimNo106r13c9v1.8.jpg	 l	 3.112	 GoodTrial	 allStim	 si
27	 2	 1	 left	 LineStimuli//2.3/stimNo116r2c2v2.3.jpg	 l	 1.870	 GoodTrial	 allStim	 si
28	 2	 1	 right	 LineStimuli//2.8/stimNo81r8c14v2.8.jpg	 l	 1.944	 GoodTrial	 allStim	 si
29	 2	 1	 right	 LineStimuli//3.3/stimNo102r13c13v3.3.jpg	 l	 1.988	 GoodTrial	 allStim	 si
30	 2	 0	 x	 LineStimuli//3.8/stimNo131r0c0v3.8.jpg	 r	 9.726	 GoodTrial	 allStim	 si
31	 2	 1	 left	 LineStimuli//4.3/stimNo104r15c2v4.3.jpg	 l	 1.938	 GoodTrial	 allStim	 si
32	 2	 0	 x	 LineStimuli//4.3/stimNo155r0c0v4.3.jpg	 r	 10.088	 GoodTrial	 allStim	 si
33	 2	 0	 x	 LineStimuli//3.8/stimNo127r0c0v3.8.jpg	 r	 10.726	 GoodTrial	 allStim	 si
34	 2	 1	 left	 LineStimuli//3.3/stimNo109r15c7v3.3.jpg	 l	 1.809	 GoodTrial	 allStim	 si
35	 2	 1	 left	 LineStimuli//2.8/stimNo88r15c3v2.8.jpg	 l	 1.890	 GoodTrial	 allStim	 si
36	 2	 0	 x	 LineStimuli//2.3/stimNo143r0c0v2.3.jpg	 r	 11.467	 GoodTrial	 allStim	 si
37	 2	 1	 left	 LineStimuli//1.8/stimNo105r6c5v1.8.jpg	 l	 1.929	 GoodTrial	 allStim	 si
38	 2	 0	 x	 LineStimuli//1.5/stimNo139r0c0v1.5.jpg	 r	 22.711	 GoodTrial	 allStim	 si
39	 2	 1	 right	 LineStimuli//1.5/stimNo107r2c19v1.5.jpg	 r	 39.280	 GoodTrial	 allStim	 si
40	 2	 1	 right	 LineStimuli//1.8/stimNo93r3c17v1.8.jpg	 l	 17.097	 GoodTrial	 allStim	 si
41	 2	 1	 right	 LineStimuli//2.3/stimNo89r8c21v2.3.jpg	 l	 4.439	 GoodTrial	 allStim	 si
42	 2	 0	 x	 LineStimuli//2.8/stimNo134r0c0v2.8.jpg	 r	 16.247	 GoodTrial	 allStim	 si
43	 2	 1	 right	 LineStimuli//3.3/stimNo116r10c14v3.3.jpg	 l	 1.889	 GoodTrial	 allStim	 si
44	 2	 0	 x	 LineStimuli//3.8/stimNo146r0c0v3.8.jpg	 r	 9.116	 GoodTrial	 allStim	 si
45	 2	 0	 x	 LineStimuli//4.3/stimNo142r0c0v4.3.jpg	 r	 9.112	 GoodTrial	 allStim	 si
46	 2	 1	 right	 LineStimuli//4.3/stimNo112r10c16v4.3.jpg	 l	 1.662	 GoodTrial	 allStim	 si
47	 2	 0	 x	 LineStimuli//3.8/stimNo131r0c0v3.8.jpg	 r	 8.759	 GoodTrial	 allStim	 si
48	 2	 0	 x	 LineStimuli//3.3/stimNo160r0c0v3.3.jpg	 r	 14.736	 GoodTrial	 allStim	 si
49	 2	 0	 x	 LineStimuli//2.8/stimNo135r0c0v2.8.jpg	 r	 11.840	 GoodTrial	 allStim	 si
50	 2	 0	 x	 LineStimuli//2.3/stimNo158r0c0v2.3.jpg	 r	 11.392	 GoodTrial	 allStim	 si
1	 3	 0	 x	 LineStimuli//3.3/stimNo152r0c0v3.3.jpg	 r	 14.045	 GoodTrial	 allStim	 si
2	 3	 1	 left	 LineStimuli//3.8/stimNo110r7c9v3.8.jpg	 l	 1.693	 GoodTrial	 allStim	 si
3	 3	 1	 left	 LineStimuli//4.3/stimNo98r3c8v4.3.jpg	 l	 2.402	 GoodTrial	 allStim	 si
4	 3	 1	 left	 LineStimuli//4.3/stimNo113r11c7v4.3.jpg	 l	 1.717	 GoodTrial	 allStim	 si
5	 3	 0	 x	 LineStimuli//3.8/stimNo128r0c0v3.8.jpg	 r	 9.047	 GoodTrial	 allStim	 si
6	 3	 1	 right	 LineStimuli//3.3/stimNo87r15c13v3.3.jpg	 l	 2.069	 GoodTrial	 allStim	 si
7	 3	 0	 x	 LineStimuli//2.8/stimNo149r0c0v2.8.jpg	 r	 8.257	 GoodTrial	 allStim	 si
8	 3	 1	 right	 LineStimuli//2.3/stimNo111r11c21v2.3.jpg	 l	 1.876	 GoodTrial	 allStim	 si
9	 3	 0	 x	 LineStimuli//1.8/stimNo160r0c0v1.8.jpg	 r	 18.075	 GoodTrial	 allStim	 si
10	 3	 1	 right	 LineStimuli//1.5/stimNo115r14c18v1.5.jpg	 r	 32.304	 GoodTrial	 allStim	 si
11	 3	 0	 x	 LineStimuli//1.5/stimNo122r0c0v1.5.jpg	 r	 32.296	 GoodTrial	 allStim	 si
12	 3	 1	 right	 LineStimuli//1.8/stimNo112r6c15v1.8.jpg	 r	 29.376	 GoodTrial	 allStim	 si
13	 3	 1	 right	 LineStimuli//2.3/stimNo103r11c21v2.3.jpg	 l	 2.231	 GoodTrial	 allStim	 si
14	 3	 1	 right	 LineStimuli//2.8/stimNo109r6c18v2.8.jpg	 l	 1.749	 GoodTrial	 allStim	 si
15	 3	 0	 x	 LineStimuli//3.3/stimNo121r0c0v3.3.jpg	 r	 12.594	 GoodTrial	 allStim	 si
16	 3	 1	 left	 LineStimuli//3.8/stimNo109r11c8v3.8.jpg	 l	 1.990	 GoodTrial	 allStim	 si
17	 3	 1	 right	 LineStimuli//4.3/stimNo96r4c19v4.3.jpg	 l	 1.621	 GoodTrial	 allStim	 si
18	 3	 1	 right	 LineStimuli//4.3/stimNo109r15c15v4.3.jpg	 l	 1.834	 GoodTrial	 allStim	 si
19	 3	 0	 x	 LineStimuli//3.8/stimNo139r0c0v3.8.jpg	 r	 9.680	 GoodTrial	 allStim	 si
20	 3	 1	 right	 LineStimuli//3.3/stimNo101r7c16v3.3.jpg	 l	 1.708	 GoodTrial	 allStim	 si
21	 3	 1	 right	 LineStimuli//2.8/stimNo93r9c20v2.8.jpg	 l	 1.766	 GoodTrial	 allStim	 si
22	 3	 1	 right	 LineStimuli//2.3/stimNo120r4c17v2.3.jpg	 l	 2.380	 GoodTrial	 allStim	 si
23	 3	 1	 left	 LineStimuli//1.8/stimNo106r13c9v1.8.jpg	 l	 2.014	 GoodTrial	 allStim	 si
24	 3	 1	 left	 LineStimuli//1.5/stimNo94r10c6v1.5.jpg	 l	 2.768	 GoodTrial	 allStim	 si
25	 3	 0	 x	 LineStimuli//1.5/stimNo125r0c0v1.5.jpg	 r	 24.920	 GoodTrial	 allStim	 si
26	 3	 1	 left	 LineStimuli//1.8/stimNo89r11c6v1.8.jpg	 r	 25.273	 GoodTrial	 allStim	 si
27	 3	 0	 x	 LineStimuli//2.3/stimNo150r0c0v2.3.jpg	 r	 21.112	 GoodTrial	 allStim	 si
28	 3	 0	 x	 LineStimuli//2.8/stimNo123r0c0v2.8.jpg	 r	 13.856	 GoodTrial	 allStim	 si
29	 3	 0	 x	 LineStimuli//3.3/stimNo129r0c0v3.3.jpg	 r	 11.731	 GoodTrial	 allStim	 si
30	 3	 0	 x	 LineStimuli//3.8/stimNo135r0c0v3.8.jpg	 r	 8.503	 GoodTrial	 allStim	 si
31	 3	 1	 right	 LineStimuli//4.3/stimNo114r10c15v4.3.jpg	 l	 1.723	 GoodTrial	 allStim	 si
32	 3	 1	 left	 LineStimuli//4.3/stimNo86r7c3v4.3.jpg	 l	 1.695	 GoodTrial	 allStim	 si
33	 3	 0	 x	 LineStimuli//3.8/stimNo157r0c0v3.8.jpg	 r	 9.077	 GoodTrial	 allStim	 si
34	 3	 0	 x	 LineStimuli//3.3/stimNo158r0c0v3.3.jpg	 r	 8.484	 GoodTrial	 allStim	 si
35	 3	 0	 x	 LineStimuli//2.8/stimNo145r0c0v2.8.jpg	 r	 9.689	 GoodTrial	 allStim	 si
36	 3	 1	 left	 LineStimuli//2.3/stimNo106r9c9v2.3.jpg	 l	 2.068	 GoodTrial	 allStim	 si
37	 3	 0	 x	 LineStimuli//1.8/stimNo134r0c0v1.8.jpg	 r	 22.552	 GoodTrial	 allStim	 si
38	 3	 1	 left	 LineStimuli//1.5/stimNo120r14c2v1.5.jpg	 l	 8.374	 GoodTrial	 allStim	 si
39	 3	 0	 x	 LineStimuli//1.5/stimNo137r0c0v1.5.jpg	 l	 35.046	 GoodTrial	 allStim	 si
40	 3	 0	 x	 LineStimuli//1.8/stimNo122r0c0v1.8.jpg	 r	 29.872	 GoodTrial	 allStim	 si
41	 3	 1	 left	 LineStimuli//2.3/stimNo113r3c8v2.3.jpg	 l	 2.042	 GoodTrial	 allStim	 si
42	 3	 0	 x	 LineStimuli//2.8/stimNo146r0c0v2.8.jpg	 r	 8.227	 GoodTrial	 allStim	 si
43	 3	 1	 right	 LineStimuli//3.3/stimNo105r7c20v3.3.jpg	 l	 1.668	 GoodTrial	 allStim	 si
44	 3	 1	 left	 LineStimuli//3.8/stimNo108r3c6v3.8.jpg	 l	 1.712	 GoodTrial	 allStim	 si
45	 3	 0	 x	 LineStimuli//4.3/stimNo150r0c0v4.3.jpg	 r	 10.521	 GoodTrial	 allStim	 si
46	 3	 0	 x	 LineStimuli//4.3/stimNo121r0c0v4.3.jpg	 r	 8.926	 GoodTrial	 allStim	 si
47	 3	 0	 x	 LineStimuli//3.8/stimNo160r0c0v3.8.jpg	 r	 7.611	 GoodTrial	 allStim	 si
48	 3	 0	 x	 LineStimuli//3.3/stimNo139r0c0v3.3.jpg	 r	 11.679	 GoodTrial	 allStim	 si
49	 3	 1	 left	 LineStimuli//2.8/stimNo104r8c6v2.8.jpg	 l	 1.947	 GoodTrial	 allStim	 si
50	 3	 0	 x	 LineStimuli//2.3/stimNo133r0c0v2.3.jpg	 r	 9.341	 GoodTrial	 allStim	 si
1	 4	 1	 left	 LineStimuli//3.3/stimNo94r14c9v3.3.jpg	 l	 2.049	 GoodTrial	 allStim	 si
2	 4	 1	 right	 LineStimuli//3.8/stimNo87r6c13v3.8.jpg	 l	 1.530	 GoodTrial	 allStim	 si
3	 4	 1	 left	 LineStimuli//4.3/stimNo87r3c5v4.3.jpg	 l	 1.560	 GoodTrial	 allStim	 si
4	 4	 0	 x	 LineStimuli//4.3/stimNo123r0c0v4.3.jpg	 r	 6.119	 GoodTrial	 allStim	 si
5	 4	 0	 x	 LineStimuli//3.8/stimNo144r0c0v3.8.jpg	 r	 6.252	 GoodTrial	 allStim	 si
6	 4	 1	 left	 LineStimuli//3.3/stimNo90r2c9v3.3.jpg	 l	 2.464	 GoodTrial	 allStim	 si
7	 4	 0	 x	 LineStimuli//2.8/stimNo124r0c0v2.8.jpg	 r	 20.018	 GoodTrial	 allStim	 si
8	 4	 1	 left	 LineStimuli//2.3/stimNo108r15c6v2.3.jpg	 l	 1.714	 GoodTrial	 allStim	 si
9	 4	 0	 x	 LineStimuli//1.8/stimNo125r0c0v1.8.jpg	 r	 16.404	 GoodTrial	 allStim	 si
10	 4	 1	 right	 LineStimuli//1.5/stimNo82r11c15v1.5.jpg	 l	 8.248	 GoodTrial	 allStim	 si
11	 4	 0	 x	 LineStimuli//1.5/stimNo135r0c0v1.5.jpg	 r	 31.638	 GoodTrial	 allStim	 si
12	 4	 0	 x	 LineStimuli//1.8/stimNo124r0c0v1.8.jpg	 r	 21.937	 GoodTrial	 allStim	 si
13	 4	 0	 x	 LineStimuli//2.3/stimNo138r0c0v2.3.jpg	 r	 10.740	 GoodTrial	 allStim	 si
14	 4	 1	 left	 LineStimuli//2.8/stimNo89r12c4v2.8.jpg	 l	 1.704	 GoodTrial	 allStim	 si
15	 4	 1	 right	 LineStimuli//3.3/stimNo112r5c15v3.3.jpg	 l	 1.542	 GoodTrial	 allStim	 si
16	 4	 0	 x	 LineStimuli//3.8/stimNo144r0c0v3.8.jpg	 r	 6.808	 GoodTrial	 allStim	 si
17	 4	 1	 right	 LineStimuli//4.3/stimNo117r10c21v4.3.jpg	 l	 1.691	 GoodTrial	 allStim	 si
18	 4	 0	 x	 LineStimuli//4.3/stimNo141r0c0v4.3.jpg	 r	 4.697	 GoodTrial	 allStim	 si
19	 4	 0	 x	 LineStimuli//3.8/stimNo124r0c0v3.8.jpg	 r	 1.889	 GoodTrial	 allStim	 si
20	 4	 0	 x	 LineStimuli//3.3/stimNo140r0c0v3.3.jpg	 r	 5.523	 GoodTrial	 allStim	 si
21	 4	 1	 left	 LineStimuli//2.8/stimNo113r9c5v2.8.jpg	 l	 1.771	 GoodTrial	 allStim	 si
22	 4	 1	 left	 LineStimuli//2.3/stimNo95r13c9v2.3.jpg	 l	 1.821	 GoodTrial	 allStim	 si
23	 4	 1	 right	 LineStimuli//1.8/stimNo111r4c21v1.8.jpg	 l	 5.833	 GoodTrial	 allStim	 si
24	 4	 1	 left	 LineStimuli//1.5/stimNo91r9c3v1.5.jpg	 l	 22.567	 GoodTrial	 allStim	 si
25	 4	 1	 left	 LineStimuli//1.5/stimNo112r9c5v1.5.jpg	 l	 18.933	 GoodTrial	 allStim	 si
26	 4	 1	 right	 LineStimuli//1.8/stimNo99r12c16v1.8.jpg	 r	 30.529	 GoodTrial	 allStim	 si
27	 4	 1	 right	 LineStimuli//2.3/stimNo87r13c19v2.3.jpg	 l	 7.727	 GoodTrial	 allStim	 si
28	 4	 0	 x	 LineStimuli//2.8/stimNo135r0c0v2.8.jpg	 r	 10.540	 GoodTrial	 allStim	 si
29	 4	 0	 x	 LineStimuli//3.3/stimNo138r0c0v3.3.jpg	 r	 8.154	 GoodTrial	 allStim	 si
30	 4	 0	 x	 LineStimuli//3.8/stimNo148r0c0v3.8.jpg	 r	 6.828	 GoodTrial	 allStim	 si
31	 4	 1	 left	 LineStimuli//4.3/stimNo110r6c7v4.3.jpg	 l	 1.654	 GoodTrial	 allStim	 si
32	 4	 0	 x	 LineStimuli//4.3/stimNo135r0c0v4.3.jpg	 r	 6.280	 GoodTrial	 allStim	 si
33	 4	 0	 x	 LineStimuli//3.8/stimNo122r0c0v3.8.jpg	 r	 5.730	 GoodTrial	 allStim	 si
34	 4	 1	 right	 LineStimuli//3.3/stimNo87r15c13v3.3.jpg	 l	 1.800	 GoodTrial	 allStim	 si
35	 4	 1	 right	 LineStimuli//2.8/stimNo101r12c16v2.8.jpg	 l	 1.632	 GoodTrial	 allStim	 si
36	 4	 0	 x	 LineStimuli//2.3/stimNo138r0c0v2.3.jpg	 r	 18.304	 GoodTrial	 allStim	 si
37	 4	 1	 left	 LineStimuli//1.8/stimNo91r14c4v1.8.jpg	 l	 9.155	 GoodTrial	 allStim	 si
38	 4	 1	 left	 LineStimuli//1.5/stimNo106r3c7v1.5.jpg	 l	 19.956	 GoodTrial	 allStim	 si
39	 4	 1	 left	 LineStimuli//1.5/stimNo85r2c5v1.5.jpg	 l	 19.168	 GoodTrial	 allStim	 si
40	 4	 0	 x	 LineStimuli//1.8/stimNo152r0c0v1.8.jpg	 r	 47.601	 GoodTrial	 allStim	 si
41	 4	 1	 right	 LineStimuli//2.3/stimNo92r10c17v2.3.jpg	 l	 2.045	 GoodTrial	 allStim	 si
42	 4	 0	 x	 LineStimuli//2.8/stimNo144r0c0v2.8.jpg	 r	 5.107	 GoodTrial	 allStim	 si
43	 4	 1	 right	 LineStimuli//3.3/stimNo118r3c16v3.3.jpg	 l	 1.989	 GoodTrial	 allStim	 si
44	 4	 1	 left	 LineStimuli//3.8/stimNo115r14c10v3.8.jpg	 l	 1.603	 GoodTrial	 allStim	 si
45	 4	 1	 left	 LineStimuli//4.3/stimNo90r10c4v4.3.jpg	 l	 1.527	 GoodTrial	 allStim	 si
46	 4	 1	 right	 LineStimuli//4.3/stimNo115r10c18v4.3.jpg	 l	 1.704	 GoodTrial	 allStim	 si
47	 4	 1	 right	 LineStimuli//3.8/stimNo101r12c17v3.8.jpg	 l	 1.567	 GoodTrial	 allStim	 si
48	 4	 1	 right	 LineStimuli//3.3/stimNo105r7c20v3.3.jpg	 l	 1.607	 GoodTrial	 allStim	 si
49	 4	 0	 x	 LineStimuli//2.8/stimNo151r0c0v2.8.jpg	 r	 8.327	 GoodTrial	 allStim	 si
50	 4	 1	 left	 LineStimuli//2.3/stimNo83r14c4v2.3.jpg	 l	 1.679	 GoodTrial	 allStim	 si
1	 5	 0	 x	 LineStimuli//3.3/stimNo149r0c0v3.3.jpg	 r	 6.464	 GoodTrial	 allStim	 si
2	 5	 0	 x	 LineStimuli//3.8/stimNo156r0c0v3.8.jpg	 r	 4.642	 GoodTrial	 allStim	 si
3	 5	 1	 left	 LineStimuli//4.3/stimNo108r5c8v4.3.jpg	 l	 1.777	 GoodTrial	 allStim	 si
4	 5	 1	 left	 LineStimuli//4.3/stimNo98r3c8v4.3.jpg	 l	 1.558	 GoodTrial	 allStim	 si
5	 5	 0	 x	 LineStimuli//3.8/stimNo158r0c0v3.8.jpg	 r	 3.966	 GoodTrial	 allStim	 si
6	 5	 0	 x	 LineStimuli//3.3/stimNo158r0c0v3.3.jpg	 r	 4.462	 GoodTrial	 allStim	 si
7	 5	 1	 left	 LineStimuli//2.8/stimNo96r6c9v2.8.jpg	 l	 1.641	 GoodTrial	 allStim	 si
8	 5	 1	 left	 LineStimuli//2.3/stimNo86r8c9v2.3.jpg	 l	 6.768	 GoodTrial	 allStim	 si
9	 5	 0	 x	 LineStimuli//1.8/stimNo151r0c0v1.8.jpg	 r	 18.008	 GoodTrial	 allStim	 si
10	 5	 0	 x	 LineStimuli//1.5/stimNo157r0c0v1.5.jpg	 r	 24.930	 GoodTrial	 allStim	 si
11	 5	 0	 x	 LineStimuli//1.5/stimNo150r0c0v1.5.jpg	 r	 45.993	 GoodTrial	 allStim	 si
12	 5	 0	 x	 LineStimuli//1.8/stimNo149r0c0v1.8.jpg	 r	 24.265	 GoodTrial	 allStim	 si
13	 5	 0	 x	 LineStimuli//2.3/stimNo147r0c0v2.3.jpg	 r	 6.259	 GoodTrial	 allStim	 si
14	 5	 0	 x	 LineStimuli//2.8/stimNo137r0c0v2.8.jpg	 r	 7.753	 GoodTrial	 allStim	 si
15	 5	 0	 x	 LineStimuli//3.3/stimNo140r0c0v3.3.jpg	 r	 7.537	 GoodTrial	 allStim	 si
16	 5	 0	 x	 LineStimuli//3.8/stimNo123r0c0v3.8.jpg	 r	 7.139	 GoodTrial	 allStim	 si
17	 5	 1	 left	 LineStimuli//4.3/stimNo88r10c3v4.3.jpg	 l	 1.657	 GoodTrial	 allStim	 si
18	 5	 1	 left	 LineStimuli//4.3/stimNo111r10c9v4.3.jpg	 l	 1.560	 GoodTrial	 allStim	 si
19	 5	 1	 right	 LineStimuli//3.8/stimNo114r10c14v3.8.jpg	 l	 1.631	 GoodTrial	 allStim	 si
20	 5	 0	 x	 LineStimuli//3.3/stimNo141r0c0v3.3.jpg	 r	 12.194	 GoodTrial	 allStim	 si
21	 5	 1	 left	 LineStimuli//2.8/stimNo88r15c3v2.8.jpg	 l	 1.711	 GoodTrial	 allStim	 si
22	 5	 0	 x	 LineStimuli//2.3/stimNo146r0c0v2.3.jpg	 r	 8.201	 GoodTrial	 allStim	 si
23	 5	 0	 x	 LineStimuli//1.8/stimNo153r0c0v1.8.jpg	 r	 15.080	 GoodTrial	 allStim	 si
24	 5	 0	 x	 LineStimuli//1.5/stimNo155r0c0v1.5.jpg	 r	 40.390	 GoodTrial	 allStim	 si
25	 5	 1	 right	 LineStimuli//1.5/stimNo93r14c18v1.5.jpg	 l	 4.620	 GoodTrial	 allStim	 si
26	 5	 1	 right	 LineStimuli//1.8/stimNo90r15c13v1.8.jpg	 l	 3.402	 GoodTrial	 allStim	 si
27	 5	 1	 right	 LineStimuli//2.3/stimNo101r8c14v2.3.jpg	 l	 2.992	 GoodTrial	 allStim	 si
28	 5	 0	 x	 LineStimuli//2.8/stimNo131r0c0v2.8.jpg	 r	 5.948	 GoodTrial	 allStim	 si
29	 5	 0	 x	 LineStimuli//3.3/stimNo144r0c0v3.3.jpg	 r	 4.962	 GoodTrial	 allStim	 si
30	 5	 1	 left	 LineStimuli//3.8/stimNo108r3c6v3.8.jpg	 l	 1.736	 GoodTrial	 allStim	 si
31	 5	 0	 x	 LineStimuli//4.3/stimNo138r0c0v4.3.jpg	 r	 6.010	 GoodTrial	 allStim	 si
32	 5	 1	 left	 LineStimuli//4.3/stimNo106r8c2v4.3.jpg	 l	 1.710	 GoodTrial	 allStim	 si
33	 5	 0	 x	 LineStimuli//3.8/stimNo155r0c0v3.8.jpg	 r	 8.767	 GoodTrial	 allStim	 si
34	 5	 1	 right	 LineStimuli//3.3/stimNo101r7c16v3.3.jpg	 l	 1.687	 GoodTrial	 allStim	 si
35	 5	 0	 x	 LineStimuli//2.8/stimNo156r0c0v2.8.jpg	 r	 13.263	 GoodTrial	 allStim	 si
36	 5	 0	 x	 LineStimuli//2.3/stimNo121r0c0v2.3.jpg	 r	 15.856	 GoodTrial	 allStim	 si
37	 5	 1	 right	 LineStimuli//1.8/stimNo90r15c13v1.8.jpg	 l	 15.907	 GoodTrial	 allStim	 si
38	 5	 0	 x	 LineStimuli//1.5/stimNo145r0c0v1.5.jpg	 r	 23.387	 GoodTrial	 allStim	 si
39	 5	 1	 right	 LineStimuli//1.5/stimNo104r5c18v1.5.jpg	 r	 27.888	 GoodTrial	 allStim	 si
40	 5	 1	 right	 LineStimuli//1.8/stimNo84r11c21v1.8.jpg	 l	 6.871	 GoodTrial	 allStim	 si
41	 5	 1	 right	 LineStimuli//2.3/stimNo84r15c14v2.3.jpg	 l	 3.263	 GoodTrial	 allStim	 si
42	 5	 1	 left	 LineStimuli//2.8/stimNo105r5c4v2.8.jpg	 l	 1.938	 GoodTrial	 allStim	 si
43	 5	 1	 right	 LineStimuli//3.3/stimNo101r7c16v3.3.jpg	 l	 1.584	 GoodTrial	 allStim	 si
44	 5	 0	 x	 LineStimuli//3.8/stimNo124r0c0v3.8.jpg	 r	 4.175	 GoodTrial	 allStim	 si
45	 5	 0	 x	 LineStimuli//4.3/stimNo125r0c0v4.3.jpg	 r	 2.122	 GoodTrial	 allStim	 si
46	 5	 0	 x	 LineStimuli//4.3/stimNo158r0c0v4.3.jpg	 r	 3.031	 GoodTrial	 allStim	 si
47	 5	 0	 x	 LineStimuli//3.8/stimNo156r0c0v3.8.jpg	 r	 3.874	 GoodTrial	 allStim	 si
48	 5	 1	 right	 LineStimuli//3.3/stimNo89r5c21v3.3.jpg	 l	 1.672	 GoodTrial	 allStim	 si
49	 5	 0	 x	 LineStimuli//2.8/stimNo152r0c0v2.8.jpg	 r	 4.832	 GoodTrial	 allStim	 si
50	 5	 1	 left	 LineStimuli//2.3/stimNo104r2c4v2.3.jpg	 l	 1.568	 GoodTrial	 allStim	 si
1	 6	 1	 left	 LineStimuli//3.3/stimNo109r15c7v3.3.jpg	 l	 1.936	 GoodTrial	 allStim	 si
2	 6	 0	 x	 LineStimuli//3.8/stimNo142r0c0v3.8.jpg	 r	 2.752	 GoodTrial	 allStim	 si
3	 6	 1	 right	 LineStimuli//4.3/stimNo81r10c14v4.3.jpg	 l	 1.550	 GoodTrial	 allStim	 si
4	 6	 1	 left	 LineStimuli//4.3/stimNo105r14c6v4.3.jpg	 l	 1.531	 GoodTrial	 allStim	 si
5	 6	 1	 right	 LineStimuli//3.8/stimNo85r3c13v3.8.jpg	 l	 1.830	 GoodTrial	 allStim	 si
6	 6	 1	 right	 LineStimuli//3.3/stimNo120r8c14v3.3.jpg	 l	 1.818	 GoodTrial	 allStim	 si
7	 6	 0	 x	 LineStimuli//2.8/stimNo138r0c0v2.8.jpg	 r	 4.258	 GoodTrial	 allStim	 si
8	 6	 0	 x	 LineStimuli//2.3/stimNo155r0c0v2.3.jpg	 r	 8.664	 GoodTrial	 allStim	 si
9	 6	 0	 x	 LineStimuli//1.8/stimNo156r0c0v1.8.jpg	 r	 20.391	 GoodTrial	 allStim	 si
10	 6	 1	 right	 LineStimuli//1.5/stimNo115r14c18v1.5.jpg	 l	 3.599	 GoodTrial	 allStim	 si
11	 6	 0	 x	 LineStimuli//1.5/stimNo144r0c0v1.5.jpg	 r	 23.256	 GoodTrial	 allStim	 si
12	 6	 0	 x	 LineStimuli//1.8/stimNo130r0c0v1.8.jpg	 r	 17.247	 GoodTrial	 allStim	 si
13	 6	 1	 left	 LineStimuli//2.3/stimNo94r8c9v2.3.jpg	 l	 1.702	 GoodTrial	 allStim	 si
14	 6	 1	 right	 LineStimuli//2.8/stimNo103r3c19v2.8.jpg	 l	 1.537	 GoodTrial	 allStim	 si
15	 6	 1	 right	 LineStimuli//3.3/stimNo112r5c15v3.3.jpg	 l	 1.528	 GoodTrial	 allStim	 si
16	 6	 1	 left	 LineStimuli//3.8/stimNo104r12c8v3.8.jpg	 l	 1.489	 GoodTrial	 allStim	 si
17	 6	 1	 right	 LineStimuli//4.3/stimNo112r10c16v4.3.jpg	 l	 1.559	 GoodTrial	 allStim	 si
18	 6	 1	 left	 LineStimuli//4.3/stimNo98r3c8v4.3.jpg	 l	 1.512	 GoodTrial	 allStim	 si
19	 6	 1	 right	 LineStimuli//3.8/stimNo114r10c14v3.8.jpg	 l	 1.647	 GoodTrial	 allStim	 si
20	 6	 0	 x	 LineStimuli//3.3/stimNo146r0c0v3.3.jpg	 r	 4.519	 GoodTrial	 allStim	 si
21	 6	 1	 left	 LineStimuli//2.8/stimNo86r15c6v2.8.jpg	 l	 1.609	 GoodTrial	 allStim	 si
22	 6	 0	 x	 LineStimuli//2.3/stimNo160r0c0v2.3.jpg	 r	 4.392	 GoodTrial	 allStim	 si
23	 6	 1	 left	 LineStimuli//1.8/stimNo107r5c4v1.8.jpg	 l	 2.121	 GoodTrial	 allStim	 si
24	 6	 0	 x	 LineStimuli//1.5/stimNo127r0c0v1.5.jpg	 r	 19.667	 GoodTrial	 allStim	 si
25	 6	 1	 right	 LineStimuli//1.5/stimNo105r3c18v1.5.jpg	 r	 14.023	 GoodTrial	 allStim	 si
26	 6	 1	 right	 LineStimuli//1.8/stimNo108r9c21v1.8.jpg	 l	 8.119	 GoodTrial	 allStim	 si
27	 6	 1	 left	 LineStimuli//2.3/stimNo108r15c6v2.3.jpg	 l	 1.799	 GoodTrial	 allStim	 si
28	 6	 0	 x	 LineStimuli//2.8/stimNo141r0c0v2.8.jpg	 r	 2.943	 GoodTrial	 allStim	 si
29	 6	 1	 left	 LineStimuli//3.3/stimNo119r15c7v3.3.jpg	 l	 1.534	 GoodTrial	 allStim	 si
30	 6	 0	 x	 LineStimuli//3.8/stimNo143r0c0v3.8.jpg	 r	 2.368	 GoodTrial	 allStim	 si
31	 6	 1	 left	 LineStimuli//4.3/stimNo103r10c4v4.3.jpg	 l	 1.623	 GoodTrial	 allStim	 si
32	 6	 0	 x	 LineStimuli//4.3/stimNo153r0c0v4.3.jpg	 r	 2.072	 GoodTrial	 allStim	 si
33	 6	 0	 x	 LineStimuli//3.8/stimNo135r0c0v3.8.jpg	 r	 2.585	 GoodTrial	 allStim	 si
34	 6	 0	 x	 LineStimuli//3.3/stimNo123r0c0v3.3.jpg	 r	 2.611	 GoodTrial	 allStim	 si
35	 6	 0	 x	 LineStimuli//2.8/stimNo144r0c0v2.8.jpg	 r	 2.458	 GoodTrial	 allStim	 si
36	 6	 0	 x	 LineStimuli//2.3/stimNo123r0c0v2.3.jpg	 r	 6.774	 GoodTrial	 allStim	 si
37	 6	 1	 left	 LineStimuli//1.8/stimNo95r4c9v1.8.jpg	 r	 11.679	 GoodTrial	 allStim	 si
38	 6	 1	 left	 LineStimuli//1.5/stimNo106r3c7v1.5.jpg	 l	 22.896	 GoodTrial	 allStim	 si
39	 6	 0	 x	 LineStimuli//1.5/stimNo152r0c0v1.5.jpg	 r	 38.729	 GoodTrial	 allStim	 si
40	 6	 1	 left	 LineStimuli//1.8/stimNo107r5c4v1.8.jpg	 l	 2.360	 GoodTrial	 allStim	 si
41	 6	 1	 right	 LineStimuli//2.3/stimNo110r15c19v2.3.jpg	 r	 5.192	 GoodTrial	 allStim	 si
42	 6	 0	 x	 LineStimuli//2.8/stimNo160r0c0v2.8.jpg	 r	 4.560	 GoodTrial	 allStim	 si
43	 6	 1	 left	 LineStimuli//3.3/stimNo100r3c3v3.3.jpg	 l	 1.782	 GoodTrial	 allStim	 si
44	 6	 0	 x	 LineStimuli//3.8/stimNo150r0c0v3.8.jpg	 r	 5.348	 GoodTrial	 allStim	 si
45	 6	 1	 right	 LineStimuli//4.3/stimNo84r15c20v4.3.jpg	 l	 1.637	 GoodTrial	 allStim	 si
46	 6	 0	 x	 LineStimuli//4.3/stimNo127r0c0v4.3.jpg	 r	 6.506	 GoodTrial	 allStim	 si
47	 6	 1	 right	 LineStimuli//3.8/stimNo102r10c17v3.8.jpg	 l	 1.574	 GoodTrial	 allStim	 si
48	 6	 1	 right	 LineStimuli//3.3/stimNo88r9c14v3.3.jpg	 l	 1.852	 GoodTrial	 allStim	 si
49	 6	 1	 right	 LineStimuli//2.8/stimNo115r9c14v2.8.jpg	 l	 1.823	 GoodTrial	 allStim	 si
50	 6	 1	 left	 LineStimuli//2.3/stimNo97r3c3v2.3.jpg	 l	 1.660	 GoodTrial	 allStim	 si
1	 7	 0	 x	 LineStimuli//3.3/stimNo149r0c0v3.3.jpg	 r	 7.481	 GoodTrial	 allStim	 si
2	 7	 0	 x	 LineStimuli//3.8/stimNo149r0c0v3.8.jpg	 r	 4.967	 GoodTrial	 allStim	 si
3	 7	 1	 left	 LineStimuli//4.3/stimNo108r5c8v4.3.jpg	 l	 1.585	 GoodTrial	 allStim	 si
4	 7	 0	 x	 LineStimuli//4.3/stimNo136r0c0v4.3.jpg	 r	 3.307	 GoodTrial	 allStim	 si
5	 7	 1	 left	 LineStimuli//3.8/stimNo108r3c6v3.8.jpg	 l	 1.642	 GoodTrial	 allStim	 si
6	 7	 0	 x	 LineStimuli//3.3/stimNo137r0c0v3.3.jpg	 r	 5.761	 GoodTrial	 allStim	 si
7	 7	 1	 right	 LineStimuli//2.8/stimNo85r4c15v2.8.jpg	 l	 1.675	 GoodTrial	 allStim	 si
8	 7	 1	 left	 LineStimuli//2.3/stimNo116r2c2v2.3.jpg	 l	 1.791	 GoodTrial	 allStim	 si
9	 7	 1	 right	 LineStimuli//1.8/stimNo117r10c16v1.8.jpg	 r	 19.529	 GoodTrial	 allStim	 si
10	 7	 1	 left	 LineStimuli//1.5/stimNo94r10c6v1.5.jpg	 l	 33.774	 GoodTrial	 allStim	 si
11	 7	 0	 x	 LineStimuli//1.5/stimNo152r0c0v1.5.jpg	 r	 38.040	 GoodTrial	 allStim	 si
12	 7	 0	 x	 LineStimuli//1.8/stimNo133r0c0v1.8.jpg	 r	 19.697	 GoodTrial	 allStim	 si
13	 7	 1	 right	 LineStimuli//2.3/stimNo109r2c17v2.3.jpg	 l	 2.724	 GoodTrial	 allStim	 si
14	 7	 1	 right	 LineStimuli//2.8/stimNo103r3c19v2.8.jpg	 l	 1.536	 GoodTrial	 allStim	 si
15	 7	 1	 right	 LineStimuli//3.3/stimNo99r6c17v3.3.jpg	 l	 1.498	 GoodTrial	 allStim	 si
16	 7	 0	 x	 LineStimuli//3.8/stimNo150r0c0v3.8.jpg	 r	 2.920	 GoodTrial	 allStim	 si
17	 7	 0	 x	 LineStimuli//4.3/stimNo156r0c0v4.3.jpg	 r	 2.016	 GoodTrial	 allStim	 si
18	 7	 0	 x	 LineStimuli//4.3/stimNo139r0c0v4.3.jpg	 r	 4.247	 GoodTrial	 allStim	 si
19	 7	 0	 x	 LineStimuli//3.8/stimNo137r0c0v3.8.jpg	 r	 6.497	 GoodTrial	 allStim	 si
20	 7	 1	 left	 LineStimuli//3.3/stimNo119r15c7v3.3.jpg	 l	 1.625	 GoodTrial	 allStim	 si
21	 7	 0	 x	 LineStimuli//2.8/stimNo154r0c0v2.8.jpg	 r	 4.277	 GoodTrial	 allStim	 si
22	 7	 0	 x	 LineStimuli//2.3/stimNo150r0c0v2.3.jpg	 r	 17.033	 GoodTrial	 allStim	 si
23	 7	 0	 x	 LineStimuli//1.8/stimNo134r0c0v1.8.jpg	 r	 23.113	 GoodTrial	 allStim	 si
24	 7	 0	 x	 LineStimuli//1.5/stimNo131r0c0v1.5.jpg	 r	 22.729	 GoodTrial	 allStim	 si
25	 7	 1	 right	 LineStimuli//1.5/stimNo115r14c18v1.5.jpg	 l	 15.246	 GoodTrial	 allStim	 si
26	 7	 0	 x	 LineStimuli//1.8/stimNo142r0c0v1.8.jpg	 r	 18.553	 GoodTrial	 allStim	 si
27	 7	 0	 x	 LineStimuli//2.3/stimNo150r0c0v2.3.jpg	 r	 4.784	 GoodTrial	 allStim	 si
28	 7	 1	 right	 LineStimuli//2.8/stimNo112r13c17v2.8.jpg	 l	 1.842	 GoodTrial	 allStim	 si
29	 7	 0	 x	 LineStimuli//3.3/stimNo156r0c0v3.3.jpg	 r	 3.721	 GoodTrial	 allStim	 si
30	 7	 0	 x	 LineStimuli//3.8/stimNo135r0c0v3.8.jpg	 r	 4.239	 GoodTrial	 allStim	 si
31	 7	 1	 left	 LineStimuli//4.3/stimNo95r11c9v4.3.jpg	 l	 1.645	 GoodTrial	 allStim	 si
32	 7	 1	 left	 LineStimuli//4.3/stimNo110r6c7v4.3.jpg	 l	 1.512	 GoodTrial	 allStim	 si
33	 7	 1	 right	 LineStimuli//3.8/stimNo101r12c17v3.8.jpg	 l	 1.666	 GoodTrial	 allStim	 si
34	 7	 1	 left	 LineStimuli//3.3/stimNo94r14c9v3.3.jpg	 l	 2.093	 GoodTrial	 allStim	 si
35	 7	 0	 x	 LineStimuli//2.8/stimNo126r0c0v2.8.jpg	 r	 8.656	 GoodTrial	 allStim	 si
36	 7	 1	 left	 LineStimuli//2.3/stimNo116r2c2v2.3.jpg	 l	 3.014	 GoodTrial	 allStim	 si
37	 7	 0	 x	 LineStimuli//1.8/stimNo144r0c0v1.8.jpg	 r	 17.847	 GoodTrial	 allStim	 si
38	 7	 1	 right	 LineStimuli//1.5/stimNo101r5c20v1.5.jpg	 r	 21.157	 GoodTrial	 allStim	 si
39	 7	 0	 x	 LineStimuli//1.5/stimNo142r0c0v1.5.jpg	 r	 26.052	 GoodTrial	 allStim	 si
40	 7	 1	 right	 LineStimuli//1.8/stimNo108r9c21v1.8.jpg	 l	 2.721	 GoodTrial	 allStim	 si
41	 7	 0	 x	 LineStimuli//2.3/stimNo148r0c0v2.3.jpg	 r	 5.842	 GoodTrial	 allStim	 si
42	 7	 0	 x	 LineStimuli//2.8/stimNo125r0c0v2.8.jpg	 r	 4.986	 GoodTrial	 allStim	 si
43	 7	 1	 left	 LineStimuli//3.3/stimNo111r15c7v3.3.jpg	 l	 1.660	 GoodTrial	 allStim	 si
44	 7	 1	 left	 LineStimuli//3.8/stimNo116r7c3v3.8.jpg	 l	 1.525	 GoodTrial	 allStim	 si
45	 7	 1	 right	 LineStimuli//4.3/stimNo94r12c13v4.3.jpg	 l	 1.588	 GoodTrial	 allStim	 si
46	 7	 0	 x	 LineStimuli//4.3/stimNo155r0c0v4.3.jpg	 r	 3.397	 GoodTrial	 allStim	 si
47	 7	 1	 left	 LineStimuli//3.8/stimNo104r12c8v3.8.jpg	 l	 1.608	 GoodTrial	 allStim	 si
48	 7	 1	 right	 LineStimuli//3.3/stimNo88r9c14v3.3.jpg	 l	 1.729	 GoodTrial	 allStim	 si
49	 7	 1	 left	 LineStimuli//2.8/stimNo94r13c7v2.8.jpg	 l	 1.744	 GoodTrial	 allStim	 si
50	 7	 1	 right	 LineStimuli//2.3/stimNo89r8c21v2.3.jpg	 l	 1.617	 GoodTrial	 allStim	 si
