Trial	Block	Target_pr	Target_side	Name	Key	RT	Message	Block_Type	Condition
1	 1	 1	 right	 LineStimuli//3.3/stimNo113r13c15v3.3.jpg	 l	 6.121	 GoodTrial	 allStim	 si
2	 1	 1	 left	 LineStimuli//3.8/stimNo104r12c8v3.8.jpg	 l	 1.756	 GoodTrial	 allStim	 si
3	 1	 1	 left	 LineStimuli//4.3/stimNo100r8c3v4.3.jpg	 l	 1.862	 GoodTrial	 allStim	 si
4	 1	 1	 left	 LineStimuli//4.3/stimNo105r14c6v4.3.jpg	 l	 1.671	 GoodTrial	 allStim	 si
5	 1	 0	 x	 LineStimuli//3.8/stimNo122r0c0v3.8.jpg	 r	 3.325	 GoodTrial	 allStim	 si
6	 1	 0	 x	 LineStimuli//3.3/stimNo123r0c0v3.3.jpg	 r	 3.178	 GoodTrial	 allStim	 si
7	 1	 0	 x	 LineStimuli//2.8/stimNo145r0c0v2.8.jpg	 r	 2.841	 GoodTrial	 allStim	 si
8	 1	 0	 x	 LineStimuli//2.3/stimNo133r0c0v2.3.jpg	 r	 2.553	 GoodTrial	 allStim	 si
9	 1	 0	 x	 LineStimuli//1.8/stimNo144r0c0v1.8.jpg	 r	 8.253	 GoodTrial	 allStim	 si
10	 1	 0	 x	 LineStimuli//1.5/stimNo142r0c0v1.5.jpg	 r	 5.759	 GoodTrial	 allStim	 si
11	 1	 0	 x	 LineStimuli//1.5/stimNo137r0c0v1.5.jpg	 r	 4.813	 GoodTrial	 allStim	 si
12	 1	 1	 left	 LineStimuli//1.8/stimNo116r4c7v1.8.jpg	 r	 2.982	 GoodTrial	 allStim	 si
13	 1	 1	 right	 LineStimuli//2.3/stimNo118r4c17v2.3.jpg	 l	 1.892	 GoodTrial	 allStim	 si
14	 1	 0	 x	 LineStimuli//2.8/stimNo147r0c0v2.8.jpg	 r	 4.445	 GoodTrial	 allStim	 si
15	 1	 1	 right	 LineStimuli//3.3/stimNo84r6c16v3.3.jpg	 l	 1.689	 GoodTrial	 allStim	 si
16	 1	 1	 right	 LineStimuli//3.8/stimNo107r9c18v3.8.jpg	 l	 1.663	 GoodTrial	 allStim	 si
17	 1	 1	 left	 LineStimuli//4.3/stimNo83r4c2v4.3.jpg	 l	 1.722	 GoodTrial	 allStim	 si
18	 1	 1	 right	 LineStimuli//4.3/stimNo117r10c21v4.3.jpg	 l	 1.889	 GoodTrial	 allStim	 si
19	 1	 0	 x	 LineStimuli//3.8/stimNo149r0c0v3.8.jpg	 r	 3.997	 GoodTrial	 allStim	 si
20	 1	 0	 x	 LineStimuli//3.3/stimNo128r0c0v3.3.jpg	 r	 3.487	 GoodTrial	 allStim	 si
21	 1	 0	 x	 LineStimuli//2.8/stimNo145r0c0v2.8.jpg	 r	 2.837	 GoodTrial	 allStim	 si
22	 1	 1	 left	 LineStimuli//2.3/stimNo95r13c9v2.3.jpg	 l	 1.907	 GoodTrial	 allStim	 si
23	 1	 1	 left	 LineStimuli//1.8/stimNo116r4c7v1.8.jpg	 l	 3.313	 GoodTrial	 allStim	 si
24	 1	 0	 x	 LineStimuli//1.5/stimNo135r0c0v1.5.jpg	 r	 3.981	 GoodTrial	 allStim	 si
25	 1	 0	 x	 LineStimuli//1.5/stimNo152r0c0v1.5.jpg	 r	 3.505	 GoodTrial	 allStim	 si
26	 1	 0	 x	 LineStimuli//1.8/stimNo148r0c0v1.8.jpg	 r	 3.611	 GoodTrial	 allStim	 si
27	 1	 0	 x	 LineStimuli//2.3/stimNo139r0c0v2.3.jpg	 r	 3.323	 GoodTrial	 allStim	 si
28	 1	 1	 left	 LineStimuli//2.8/stimNo98r15c2v2.8.jpg	 l	 1.760	 GoodTrial	 allStim	 si
29	 1	 0	 x	 LineStimuli//3.3/stimNo149r0c0v3.3.jpg	 r	 3.591	 GoodTrial	 allStim	 si
30	 1	 1	 left	 LineStimuli//3.8/stimNo119r9c8v3.8.jpg	 l	 1.808	 GoodTrial	 allStim	 si
31	 1	 0	 x	 LineStimuli//4.3/stimNo130r0c0v4.3.jpg	 r	 3.365	 GoodTrial	 allStim	 si
32	 1	 1	 right	 LineStimuli//4.3/stimNo117r10c21v4.3.jpg	 r	 2.952	 GoodTrial	 allStim	 si
33	 1	 1	 left	 LineStimuli//3.8/stimNo118r4c8v3.8.jpg	 l	 1.598	 GoodTrial	 allStim	 si
34	 1	 1	 left	 LineStimuli//3.3/stimNo104r4c4v3.3.jpg	 l	 1.537	 GoodTrial	 allStim	 si
35	 1	 0	 x	 LineStimuli//2.8/stimNo143r0c0v2.8.jpg	 r	 2.691	 GoodTrial	 allStim	 si
36	 1	 0	 x	 LineStimuli//2.3/stimNo122r0c0v2.3.jpg	 r	 3.773	 GoodTrial	 allStim	 si
37	 1	 0	 x	 LineStimuli//1.8/stimNo150r0c0v1.8.jpg	 r	 3.025	 GoodTrial	 allStim	 si
38	 1	 0	 x	 LineStimuli//1.5/stimNo122r0c0v1.5.jpg	 r	 3.346	 GoodTrial	 allStim	 si
39	 1	 1	 left	 LineStimuli//1.5/stimNo120r14c2v1.5.jpg	 l	 1.822	 GoodTrial	 allStim	 si
40	 1	 0	 x	 LineStimuli//1.8/stimNo155r0c0v1.8.jpg	 r	 4.262	 GoodTrial	 allStim	 si
41	 1	 1	 left	 LineStimuli//2.3/stimNo86r8c9v2.3.jpg	 l	 1.602	 GoodTrial	 allStim	 si
42	 1	 1	 left	 LineStimuli//2.8/stimNo88r15c3v2.8.jpg	 l	 1.600	 GoodTrial	 allStim	 si
43	 1	 0	 x	 LineStimuli//3.3/stimNo138r0c0v3.3.jpg	 r	 2.072	 GoodTrial	 allStim	 si
44	 1	 0	 x	 LineStimuli//3.8/stimNo121r0c0v3.8.jpg	 r	 2.869	 GoodTrial	 allStim	 si
45	 1	 1	 right	 LineStimuli//4.3/stimNo91r9c13v4.3.jpg	 l	 1.710	 GoodTrial	 allStim	 si
46	 1	 0	 x	 LineStimuli//4.3/stimNo125r0c0v4.3.jpg	 r	 2.515	 GoodTrial	 allStim	 si
47	 1	 1	 right	 LineStimuli//3.8/stimNo85r3c13v3.8.jpg	 l	 1.539	 GoodTrial	 allStim	 si
48	 1	 1	 left	 LineStimuli//3.3/stimNo85r6c4v3.3.jpg	 l	 2.062	 GoodTrial	 allStim	 si
49	 1	 1	 right	 LineStimuli//2.8/stimNo117r11c17v2.8.jpg	 l	 2.508	 GoodTrial	 allStim	 si
50	 1	 1	 left	 LineStimuli//2.3/stimNo114r7c8v2.3.jpg	 l	 1.802	 GoodTrial	 allStim	 si
1	 2	 0	 x	 LineStimuli//3.3/stimNo158r0c0v3.3.jpg	 r	 5.120	 GoodTrial	 allStim	 si
2	 2	 0	 x	 LineStimuli//3.8/stimNo129r0c0v3.8.jpg	 r	 4.128	 GoodTrial	 allStim	 si
3	 2	 1	 left	 LineStimuli//4.3/stimNo83r4c2v4.3.jpg	 l	 1.680	 GoodTrial	 allStim	 si
4	 2	 0	 x	 LineStimuli//4.3/stimNo138r0c0v4.3.jpg	 r	 3.628	 GoodTrial	 allStim	 si
5	 2	 0	 x	 LineStimuli//3.8/stimNo138r0c0v3.8.jpg	 r	 2.536	 GoodTrial	 allStim	 si
6	 2	 0	 x	 LineStimuli//3.3/stimNo140r0c0v3.3.jpg	 r	 2.390	 GoodTrial	 allStim	 si
7	 2	 1	 right	 LineStimuli//2.8/stimNo81r8c14v2.8.jpg	 l	 1.730	 GoodTrial	 allStim	 si
8	 2	 1	 left	 LineStimuli//2.3/stimNo100r8c6v2.3.jpg	 l	 1.661	 GoodTrial	 allStim	 si
9	 2	 0	 x	 LineStimuli//1.8/stimNo129r0c0v1.8.jpg	 r	 3.763	 GoodTrial	 allStim	 si
10	 2	 0	 x	 LineStimuli//1.5/stimNo146r0c0v1.5.jpg	 r	 3.056	 GoodTrial	 allStim	 si
11	 2	 1	 left	 LineStimuli//1.5/stimNo110r7c3v1.5.jpg	 r	 4.784	 GoodTrial	 allStim	 si
12	 2	 1	 right	 LineStimuli//1.8/stimNo114r8c13v1.8.jpg	 l	 1.976	 GoodTrial	 allStim	 si
13	 2	 0	 x	 LineStimuli//2.3/stimNo139r0c0v2.3.jpg	 r	 3.772	 GoodTrial	 allStim	 si
14	 2	 0	 x	 LineStimuli//2.8/stimNo128r0c0v2.8.jpg	 r	 3.438	 GoodTrial	 allStim	 si
15	 2	 0	 x	 LineStimuli//3.3/stimNo121r0c0v3.3.jpg	 r	 3.958	 GoodTrial	 allStim	 si
16	 2	 1	 left	 LineStimuli//3.8/stimNo104r12c8v3.8.jpg	 l	 1.665	 GoodTrial	 allStim	 si
17	 2	 0	 x	 LineStimuli//4.3/stimNo150r0c0v4.3.jpg	 r	 3.112	 GoodTrial	 allStim	 si
18	 2	 1	 left	 LineStimuli//4.3/stimNo105r14c6v4.3.jpg	 l	 1.560	 GoodTrial	 allStim	 si
19	 2	 1	 left	 LineStimuli//3.8/stimNo109r11c8v3.8.jpg	 l	 1.609	 GoodTrial	 allStim	 si
20	 2	 1	 left	 LineStimuli//3.3/stimNo90r2c9v3.3.jpg	 l	 1.850	 GoodTrial	 allStim	 si
21	 2	 0	 x	 LineStimuli//2.8/stimNo146r0c0v2.8.jpg	 r	 2.600	 GoodTrial	 allStim	 si
22	 2	 1	 right	 LineStimuli//2.3/stimNo90r14c21v2.3.jpg	 l	 2.762	 GoodTrial	 allStim	 si
23	 2	 1	 right	 LineStimuli//1.8/stimNo92r10c18v1.8.jpg	 r	 2.411	 GoodTrial	 allStim	 si
24	 2	 0	 x	 LineStimuli//1.5/stimNo141r0c0v1.5.jpg	 r	 5.161	 GoodTrial	 allStim	 si
25	 2	 0	 x	 LineStimuli//1.5/stimNo139r0c0v1.5.jpg	 r	 4.552	 GoodTrial	 allStim	 si
26	 2	 1	 right	 LineStimuli//1.8/stimNo117r10c16v1.8.jpg	 r	 3.541	 GoodTrial	 allStim	 si
27	 2	 1	 left	 LineStimuli//2.3/stimNo113r3c8v2.3.jpg	 l	 1.786	 GoodTrial	 allStim	 si
28	 2	 0	 x	 LineStimuli//2.8/stimNo129r0c0v2.8.jpg	 r	 3.039	 GoodTrial	 allStim	 si
29	 2	 0	 x	 LineStimuli//3.3/stimNo130r0c0v3.3.jpg	 r	 2.404	 GoodTrial	 allStim	 si
30	 2	 1	 right	 LineStimuli//3.8/stimNo111r15c20v3.8.jpg	 l	 1.999	 GoodTrial	 allStim	 si
31	 2	 1	 left	 LineStimuli//4.3/stimNo88r10c3v4.3.jpg	 l	 1.603	 GoodTrial	 allStim	 si
32	 2	 0	 x	 LineStimuli//4.3/stimNo137r0c0v4.3.jpg	 r	 3.896	 GoodTrial	 allStim	 si
33	 2	 1	 left	 LineStimuli//3.8/stimNo118r4c8v3.8.jpg	 l	 1.559	 GoodTrial	 allStim	 si
34	 2	 1	 right	 LineStimuli//3.3/stimNo98r4c21v3.3.jpg	 l	 1.653	 GoodTrial	 allStim	 si
35	 2	 1	 right	 LineStimuli//2.8/stimNo93r9c20v2.8.jpg	 l	 1.557	 GoodTrial	 allStim	 si
36	 2	 0	 x	 LineStimuli//2.3/stimNo132r0c0v2.3.jpg	 r	 2.601	 GoodTrial	 allStim	 si
37	 2	 1	 left	 LineStimuli//1.8/stimNo81r6c8v1.8.jpg	 l	 1.677	 GoodTrial	 allStim	 si
38	 2	 1	 right	 LineStimuli//1.5/stimNo103r13c17v1.5.jpg	 r	 4.011	 GoodTrial	 allStim	 si
39	 2	 1	 right	 LineStimuli//1.5/stimNo101r5c20v1.5.jpg	 l	 2.407	 GoodTrial	 allStim	 si
40	 2	 1	 right	 LineStimuli//1.8/stimNo100r9c13v1.8.jpg	 l	 2.793	 GoodTrial	 allStim	 si
41	 2	 1	 left	 LineStimuli//2.3/stimNo97r3c3v2.3.jpg	 r	 2.365	 GoodTrial	 allStim	 si
42	 2	 0	 x	 LineStimuli//2.8/stimNo141r0c0v2.8.jpg	 r	 4.113	 GoodTrial	 allStim	 si
43	 2	 0	 x	 LineStimuli//3.3/stimNo153r0c0v3.3.jpg	 r	 3.887	 GoodTrial	 allStim	 si
44	 2	 0	 x	 LineStimuli//3.8/stimNo141r0c0v3.8.jpg	 r	 3.520	 GoodTrial	 allStim	 si
45	 2	 1	 left	 LineStimuli//4.3/stimNo103r10c4v4.3.jpg	 l	 1.619	 GoodTrial	 allStim	 si
46	 2	 1	 left	 LineStimuli//4.3/stimNo98r3c8v4.3.jpg	 l	 1.635	 GoodTrial	 allStim	 si
47	 2	 1	 left	 LineStimuli//3.8/stimNo106r9c9v3.8.jpg	 l	 1.559	 GoodTrial	 allStim	 si
48	 2	 0	 x	 LineStimuli//3.3/stimNo133r0c0v3.3.jpg	 r	 1.979	 GoodTrial	 allStim	 si
49	 2	 0	 x	 LineStimuli//2.8/stimNo127r0c0v2.8.jpg	 r	 2.286	 GoodTrial	 allStim	 si
50	 2	 0	 x	 LineStimuli//2.3/stimNo128r0c0v2.3.jpg	 r	 1.861	 GoodTrial	 allStim	 si
1	 3	 0	 x	 LineStimuli//3.3/stimNo124r0c0v3.3.jpg	 r	 2.912	 GoodTrial	 allStim	 si
2	 3	 1	 right	 LineStimuli//3.8/stimNo92r6c21v3.8.jpg	 l	 1.690	 GoodTrial	 allStim	 si
3	 3	 0	 x	 LineStimuli//4.3/stimNo160r0c0v4.3.jpg	 r	 2.375	 GoodTrial	 allStim	 si
4	 3	 0	 x	 LineStimuli//4.3/stimNo137r0c0v4.3.jpg	 r	 2.612	 GoodTrial	 allStim	 si
5	 3	 0	 x	 LineStimuli//3.8/stimNo139r0c0v3.8.jpg	 r	 3.151	 GoodTrial	 allStim	 si
6	 3	 0	 x	 LineStimuli//3.3/stimNo127r0c0v3.3.jpg	 r	 2.464	 GoodTrial	 allStim	 si
7	 3	 1	 right	 LineStimuli//2.8/stimNo95r9c18v2.8.jpg	 l	 1.672	 GoodTrial	 allStim	 si
8	 3	 0	 x	 LineStimuli//2.3/stimNo143r0c0v2.3.jpg	 r	 2.023	 GoodTrial	 allStim	 si
9	 3	 0	 x	 LineStimuli//1.8/stimNo156r0c0v1.8.jpg	 r	 3.620	 GoodTrial	 allStim	 si
10	 3	 0	 x	 LineStimuli//1.5/stimNo138r0c0v1.5.jpg	 r	 3.026	 GoodTrial	 allStim	 si
11	 3	 0	 x	 LineStimuli//1.5/stimNo135r0c0v1.5.jpg	 l	 6.398	 GoodTrial	 allStim	 si
12	 3	 0	 x	 LineStimuli//1.8/stimNo160r0c0v1.8.jpg	 r	 4.868	 GoodTrial	 allStim	 si
13	 3	 1	 left	 LineStimuli//2.3/stimNo96r3c3v2.3.jpg	 l	 1.768	 GoodTrial	 allStim	 si
14	 3	 1	 left	 LineStimuli//2.8/stimNo84r3c9v2.8.jpg	 l	 1.716	 GoodTrial	 allStim	 si
15	 3	 0	 x	 LineStimuli//3.3/stimNo153r0c0v3.3.jpg	 r	 2.638	 GoodTrial	 allStim	 si
16	 3	 0	 x	 LineStimuli//3.8/stimNo135r0c0v3.8.jpg	 r	 3.002	 GoodTrial	 allStim	 si
17	 3	 0	 x	 LineStimuli//4.3/stimNo136r0c0v4.3.jpg	 r	 2.258	 GoodTrial	 allStim	 si
18	 3	 0	 x	 LineStimuli//4.3/stimNo143r0c0v4.3.jpg	 r	 3.296	 GoodTrial	 allStim	 si
19	 3	 1	 left	 LineStimuli//3.8/stimNo113r14c9v3.8.jpg	 l	 1.818	 GoodTrial	 allStim	 si
20	 3	 1	 right	 LineStimuli//3.3/stimNo118r3c16v3.3.jpg	 l	 1.686	 GoodTrial	 allStim	 si
21	 3	 1	 right	 LineStimuli//2.8/stimNo106r13c20v2.8.jpg	 l	 1.660	 GoodTrial	 allStim	 si
22	 3	 0	 x	 LineStimuli//2.3/stimNo124r0c0v2.3.jpg	 r	 2.536	 GoodTrial	 allStim	 si
23	 3	 1	 right	 LineStimuli//1.8/stimNo93r3c17v1.8.jpg	 l	 2.152	 GoodTrial	 allStim	 si
24	 3	 0	 x	 LineStimuli//1.5/stimNo158r0c0v1.5.jpg	 r	 2.600	 GoodTrial	 allStim	 si
25	 3	 0	 x	 LineStimuli//1.5/stimNo125r0c0v1.5.jpg	 r	 2.040	 GoodTrial	 allStim	 si
26	 3	 0	 x	 LineStimuli//1.8/stimNo139r0c0v1.8.jpg	 r	 2.648	 GoodTrial	 allStim	 si
27	 3	 1	 left	 LineStimuli//2.3/stimNo116r2c2v2.3.jpg	 l	 1.826	 GoodTrial	 allStim	 si
28	 3	 1	 right	 LineStimuli//2.8/stimNo111r9c15v2.8.jpg	 l	 1.678	 GoodTrial	 allStim	 si
29	 3	 1	 left	 LineStimuli//3.3/stimNo86r5c7v3.3.jpg	 l	 1.515	 GoodTrial	 allStim	 si
30	 3	 1	 left	 LineStimuli//3.8/stimNo103r11c7v3.8.jpg	 l	 1.513	 GoodTrial	 allStim	 si
31	 3	 0	 x	 LineStimuli//4.3/stimNo148r0c0v4.3.jpg	 r	 2.320	 GoodTrial	 allStim	 si
32	 3	 0	 x	 LineStimuli//4.3/stimNo145r0c0v4.3.jpg	 r	 2.356	 GoodTrial	 allStim	 si
33	 3	 1	 right	 LineStimuli//3.8/stimNo88r10c17v3.8.jpg	 l	 1.516	 GoodTrial	 allStim	 si
34	 3	 0	 x	 LineStimuli//3.3/stimNo121r0c0v3.3.jpg	 r	 2.290	 GoodTrial	 allStim	 si
35	 3	 1	 left	 LineStimuli//2.8/stimNo87r11c8v2.8.jpg	 l	 1.668	 GoodTrial	 allStim	 si
36	 3	 1	 right	 LineStimuli//2.3/stimNo85r4c15v2.3.jpg	 l	 1.680	 GoodTrial	 allStim	 si
37	 3	 1	 left	 LineStimuli//1.8/stimNo107r5c4v1.8.jpg	 l	 1.568	 GoodTrial	 allStim	 si
38	 3	 0	 x	 LineStimuli//1.5/stimNo146r0c0v1.5.jpg	 r	 2.053	 GoodTrial	 allStim	 si
39	 3	 0	 x	 LineStimuli//1.5/stimNo149r0c0v1.5.jpg	 r	 2.116	 GoodTrial	 allStim	 si
40	 3	 0	 x	 LineStimuli//1.8/stimNo139r0c0v1.8.jpg	 r	 2.581	 GoodTrial	 allStim	 si
41	 3	 0	 x	 LineStimuli//2.3/stimNo126r0c0v2.3.jpg	 r	 3.021	 GoodTrial	 allStim	 si
42	 3	 1	 right	 LineStimuli//2.8/stimNo90r13c21v2.8.jpg	 l	 1.927	 GoodTrial	 allStim	 si
43	 3	 1	 right	 LineStimuli//3.3/stimNo116r10c14v3.3.jpg	 l	 1.666	 GoodTrial	 allStim	 si
44	 3	 0	 x	 LineStimuli//3.8/stimNo136r0c0v3.8.jpg	 r	 2.407	 GoodTrial	 allStim	 si
45	 3	 1	 right	 LineStimuli//4.3/stimNo102r10c19v4.3.jpg	 l	 1.497	 GoodTrial	 allStim	 si
46	 3	 0	 x	 LineStimuli//4.3/stimNo138r0c0v4.3.jpg	 r	 2.056	 GoodTrial	 allStim	 si
47	 3	 1	 right	 LineStimuli//3.8/stimNo99r2c13v3.8.jpg	 l	 1.536	 GoodTrial	 allStim	 si
48	 3	 1	 right	 LineStimuli//3.3/stimNo96r8c18v3.3.jpg	 l	 1.529	 GoodTrial	 allStim	 si
49	 3	 1	 left	 LineStimuli//2.8/stimNo94r13c7v2.8.jpg	 l	 1.786	 GoodTrial	 allStim	 si
50	 3	 1	 left	 LineStimuli//2.3/stimNo114r7c8v2.3.jpg	 l	 2.078	 GoodTrial	 allStim	 si
1	 4	 1	 left	 LineStimuli//3.3/stimNo110r4c3v3.3.jpg	 l	 1.736	 GoodTrial	 allStim	 si
2	 4	 1	 right	 LineStimuli//3.8/stimNo90r8c17v3.8.jpg	 l	 1.601	 GoodTrial	 allStim	 si
3	 4	 0	 x	 LineStimuli//4.3/stimNo154r0c0v4.3.jpg	 r	 2.095	 GoodTrial	 allStim	 si
4	 4	 0	 x	 LineStimuli//4.3/stimNo133r0c0v4.3.jpg	 r	 2.337	 GoodTrial	 allStim	 si
5	 4	 1	 right	 LineStimuli//3.8/stimNo102r10c17v3.8.jpg	 l	 1.539	 GoodTrial	 allStim	 si
6	 4	 0	 x	 LineStimuli//3.3/stimNo125r0c0v3.3.jpg	 r	 2.211	 GoodTrial	 allStim	 si
7	 4	 1	 right	 LineStimuli//2.8/stimNo93r9c20v2.8.jpg	 l	 1.571	 GoodTrial	 allStim	 si
8	 4	 0	 x	 LineStimuli//2.3/stimNo147r0c0v2.3.jpg	 r	 2.123	 GoodTrial	 allStim	 si
9	 4	 1	 left	 LineStimuli//1.8/stimNo98r15c5v1.8.jpg	 l	 2.207	 GoodTrial	 allStim	 si
10	 4	 0	 x	 LineStimuli//1.5/stimNo157r0c0v1.5.jpg	 r	 3.519	 GoodTrial	 allStim	 si
11	 4	 0	 x	 LineStimuli//1.5/stimNo129r0c0v1.5.jpg	 r	 4.507	 GoodTrial	 allStim	 si
12	 4	 0	 x	 LineStimuli//1.8/stimNo129r0c0v1.8.jpg	 r	 2.665	 GoodTrial	 allStim	 si
13	 4	 0	 x	 LineStimuli//2.3/stimNo125r0c0v2.3.jpg	 r	 2.081	 GoodTrial	 allStim	 si
14	 4	 1	 right	 LineStimuli//2.8/stimNo92r14c21v2.8.jpg	 l	 1.725	 GoodTrial	 allStim	 si
15	 4	 1	 right	 LineStimuli//3.3/stimNo102r13c13v3.3.jpg	 l	 1.619	 GoodTrial	 allStim	 si
16	 4	 1	 left	 LineStimuli//3.8/stimNo83r9c9v3.8.jpg	 l	 1.531	 GoodTrial	 allStim	 si
17	 4	 0	 x	 LineStimuli//4.3/stimNo150r0c0v4.3.jpg	 r	 2.651	 GoodTrial	 allStim	 si
18	 4	 1	 right	 LineStimuli//4.3/stimNo115r10c18v4.3.jpg	 l	 1.551	 GoodTrial	 allStim	 si
19	 4	 0	 x	 LineStimuli//3.8/stimNo126r0c0v3.8.jpg	 r	 2.679	 GoodTrial	 allStim	 si
20	 4	 0	 x	 LineStimuli//3.3/stimNo125r0c0v3.3.jpg	 r	 2.057	 GoodTrial	 allStim	 si
21	 4	 0	 x	 LineStimuli//2.8/stimNo133r0c0v2.8.jpg	 r	 1.837	 GoodTrial	 allStim	 si
22	 4	 1	 left	 LineStimuli//2.3/stimNo97r3c3v2.3.jpg	 l	 2.964	 GoodTrial	 allStim	 si
23	 4	 1	 right	 LineStimuli//1.8/stimNo112r6c15v1.8.jpg	 l	 2.320	 GoodTrial	 allStim	 si
24	 4	 1	 right	 LineStimuli//1.5/stimNo98r8c21v1.5.jpg	 l	 2.775	 GoodTrial	 allStim	 si
25	 4	 0	 x	 LineStimuli//1.5/stimNo149r0c0v1.5.jpg	 r	 4.859	 GoodTrial	 allStim	 si
26	 4	 0	 x	 LineStimuli//1.8/stimNo144r0c0v1.8.jpg	 r	 4.360	 GoodTrial	 allStim	 si
27	 4	 0	 x	 LineStimuli//2.3/stimNo147r0c0v2.3.jpg	 r	 3.008	 GoodTrial	 allStim	 si
28	 4	 0	 x	 LineStimuli//2.8/stimNo150r0c0v2.8.jpg	 r	 1.958	 GoodTrial	 allStim	 si
29	 4	 1	 left	 LineStimuli//3.3/stimNo85r6c4v3.3.jpg	 l	 1.535	 GoodTrial	 allStim	 si
30	 4	 1	 right	 LineStimuli//3.8/stimNo112r12c16v3.8.jpg	 l	 1.647	 GoodTrial	 allStim	 si
31	 4	 1	 right	 LineStimuli//4.3/stimNo119r12c17v4.3.jpg	 l	 1.473	 GoodTrial	 allStim	 si
32	 4	 0	 x	 LineStimuli//4.3/stimNo130r0c0v4.3.jpg	 r	 2.336	 GoodTrial	 allStim	 si
33	 4	 1	 left	 LineStimuli//3.8/stimNo100r13c6v3.8.jpg	 l	 1.596	 GoodTrial	 allStim	 si
34	 4	 0	 x	 LineStimuli//3.3/stimNo150r0c0v3.3.jpg	 r	 2.608	 GoodTrial	 allStim	 si
35	 4	 0	 x	 LineStimuli//2.8/stimNo142r0c0v2.8.jpg	 r	 1.767	 GoodTrial	 allStim	 si
36	 4	 1	 right	 LineStimuli//2.3/stimNo110r15c19v2.3.jpg	 l	 2.181	 GoodTrial	 allStim	 si
37	 4	 0	 x	 LineStimuli//1.8/stimNo153r0c0v1.8.jpg	 r	 2.367	 GoodTrial	 allStim	 si
38	 4	 1	 left	 LineStimuli//1.5/stimNo87r12c5v1.5.jpg	 r	 2.896	 GoodTrial	 allStim	 si
39	 4	 0	 x	 LineStimuli//1.5/stimNo126r0c0v1.5.jpg	 r	 3.535	 GoodTrial	 allStim	 si
40	 4	 1	 right	 LineStimuli//1.8/stimNo109r7c17v1.8.jpg	 l	 3.023	 GoodTrial	 allStim	 si
41	 4	 1	 left	 LineStimuli//2.3/stimNo115r7c3v2.3.jpg	 l	 1.768	 GoodTrial	 allStim	 si
42	 4	 1	 right	 LineStimuli//2.8/stimNo118r5c16v2.8.jpg	 l	 1.700	 GoodTrial	 allStim	 si
43	 4	 0	 x	 LineStimuli//3.3/stimNo135r0c0v3.3.jpg	 r	 2.668	 GoodTrial	 allStim	 si
44	 4	 1	 right	 LineStimuli//3.8/stimNo87r6c13v3.8.jpg	 l	 1.710	 GoodTrial	 allStim	 si
45	 4	 0	 x	 LineStimuli//4.3/stimNo156r0c0v4.3.jpg	 r	 2.231	 GoodTrial	 allStim	 si
46	 4	 0	 x	 LineStimuli//4.3/stimNo145r0c0v4.3.jpg	 r	 2.344	 GoodTrial	 allStim	 si
47	 4	 1	 left	 LineStimuli//3.8/stimNo113r14c9v3.8.jpg	 l	 1.554	 GoodTrial	 allStim	 si
48	 4	 0	 x	 LineStimuli//3.3/stimNo150r0c0v3.3.jpg	 r	 2.168	 GoodTrial	 allStim	 si
49	 4	 1	 left	 LineStimuli//2.8/stimNo87r11c8v2.8.jpg	 l	 1.616	 GoodTrial	 allStim	 si
50	 4	 0	 x	 LineStimuli//2.3/stimNo124r0c0v2.3.jpg	 r	 2.228	 GoodTrial	 allStim	 si
1	 5	 0	 x	 LineStimuli//3.3/stimNo156r0c0v3.3.jpg	 r	 4.096	 GoodTrial	 allStim	 si
2	 5	 0	 x	 LineStimuli//3.8/stimNo126r0c0v3.8.jpg	 r	 2.328	 GoodTrial	 allStim	 si
3	 5	 1	 right	 LineStimuli//4.3/stimNo117r10c21v4.3.jpg	 l	 1.832	 GoodTrial	 allStim	 si
4	 5	 0	 x	 LineStimuli//4.3/stimNo135r0c0v4.3.jpg	 r	 2.212	 GoodTrial	 allStim	 si
5	 5	 1	 right	 LineStimuli//3.8/stimNo92r6c21v3.8.jpg	 l	 1.552	 GoodTrial	 allStim	 si
6	 5	 1	 left	 LineStimuli//3.3/stimNo94r14c9v3.3.jpg	 l	 1.601	 GoodTrial	 allStim	 si
7	 5	 1	 left	 LineStimuli//2.8/stimNo97r11c4v2.8.jpg	 l	 1.681	 GoodTrial	 allStim	 si
8	 5	 0	 x	 LineStimuli//2.3/stimNo132r0c0v2.3.jpg	 r	 2.388	 GoodTrial	 allStim	 si
9	 5	 1	 right	 LineStimuli//1.8/stimNo83r6c13v1.8.jpg	 l	 1.900	 GoodTrial	 allStim	 si
10	 5	 0	 x	 LineStimuli//1.5/stimNo160r0c0v1.5.jpg	 r	 3.014	 GoodTrial	 allStim	 si
11	 5	 0	 x	 LineStimuli//1.5/stimNo152r0c0v1.5.jpg	 r	 3.690	 GoodTrial	 allStim	 si
12	 5	 0	 x	 LineStimuli//1.8/stimNo159r0c0v1.8.jpg	 r	 3.024	 GoodTrial	 allStim	 si
13	 5	 0	 x	 LineStimuli//2.3/stimNo124r0c0v2.3.jpg	 r	 2.817	 GoodTrial	 allStim	 si
14	 5	 0	 x	 LineStimuli//2.8/stimNo138r0c0v2.8.jpg	 r	 3.258	 GoodTrial	 allStim	 si
15	 5	 0	 x	 LineStimuli//3.3/stimNo154r0c0v3.3.jpg	 r	 2.738	 GoodTrial	 allStim	 si
16	 5	 1	 left	 LineStimuli//3.8/stimNo86r7c7v3.8.jpg	 l	 1.564	 GoodTrial	 allStim	 si
17	 5	 1	 left	 LineStimuli//4.3/stimNo85r3c5v4.3.jpg	 l	 1.498	 GoodTrial	 allStim	 si
18	 5	 1	 left	 LineStimuli//4.3/stimNo86r7c3v4.3.jpg	 l	 1.513	 GoodTrial	 allStim	 si
19	 5	 0	 x	 LineStimuli//3.8/stimNo139r0c0v3.8.jpg	 r	 1.910	 GoodTrial	 allStim	 si
20	 5	 0	 x	 LineStimuli//3.3/stimNo148r0c0v3.3.jpg	 r	 2.144	 GoodTrial	 allStim	 si
21	 5	 0	 x	 LineStimuli//2.8/stimNo121r0c0v2.8.jpg	 r	 2.188	 GoodTrial	 allStim	 si
22	 5	 1	 left	 LineStimuli//2.3/stimNo83r14c4v2.3.jpg	 l	 1.706	 GoodTrial	 allStim	 si
23	 5	 0	 x	 LineStimuli//1.8/stimNo132r0c0v1.8.jpg	 r	 2.139	 GoodTrial	 allStim	 si
24	 5	 1	 right	 LineStimuli//1.5/stimNo95r6c14v1.5.jpg	 l	 3.100	 GoodTrial	 allStim	 si
25	 5	 1	 left	 LineStimuli//1.5/stimNo85r2c5v1.5.jpg	 r	 5.395	 GoodTrial	 allStim	 si
26	 5	 0	 x	 LineStimuli//1.8/stimNo146r0c0v1.8.jpg	 r	 3.171	 GoodTrial	 allStim	 si
27	 5	 0	 x	 LineStimuli//2.3/stimNo133r0c0v2.3.jpg	 r	 4.179	 GoodTrial	 allStim	 si
28	 5	 0	 x	 LineStimuli//2.8/stimNo135r0c0v2.8.jpg	 r	 2.963	 GoodTrial	 allStim	 si
29	 5	 1	 right	 LineStimuli//3.3/stimNo88r9c14v3.3.jpg	 l	 1.612	 GoodTrial	 allStim	 si
30	 5	 0	 x	 LineStimuli//3.8/stimNo131r0c0v3.8.jpg	 r	 2.088	 GoodTrial	 allStim	 si
31	 5	 1	 right	 LineStimuli//4.3/stimNo115r10c18v4.3.jpg	 l	 1.513	 GoodTrial	 allStim	 si
32	 5	 1	 left	 LineStimuli//4.3/stimNo100r8c3v4.3.jpg	 l	 1.609	 GoodTrial	 allStim	 si
33	 5	 0	 x	 LineStimuli//3.8/stimNo159r0c0v3.8.jpg	 r	 2.217	 GoodTrial	 allStim	 si
34	 5	 1	 left	 LineStimuli//3.3/stimNo119r15c7v3.3.jpg	 l	 1.639	 GoodTrial	 allStim	 si
35	 5	 1	 left	 LineStimuli//2.8/stimNo104r8c6v2.8.jpg	 l	 1.547	 GoodTrial	 allStim	 si
36	 5	 0	 x	 LineStimuli//2.3/stimNo156r0c0v2.3.jpg	 r	 2.185	 GoodTrial	 allStim	 si
37	 5	 1	 right	 LineStimuli//1.8/stimNo101r4c13v1.8.jpg	 l	 1.665	 GoodTrial	 allStim	 si
38	 5	 0	 x	 LineStimuli//1.5/stimNo146r0c0v1.5.jpg	 r	 2.057	 GoodTrial	 allStim	 si
39	 5	 0	 x	 LineStimuli//1.5/stimNo155r0c0v1.5.jpg	 r	 2.477	 GoodTrial	 allStim	 si
40	 5	 1	 left	 LineStimuli//1.8/stimNo88r15c9v1.8.jpg	 r	 2.401	 GoodTrial	 allStim	 si
41	 5	 1	 left	 LineStimuli//2.3/stimNo104r2c4v2.3.jpg	 l	 1.729	 GoodTrial	 allStim	 si
42	 5	 0	 x	 LineStimuli//2.8/stimNo144r0c0v2.8.jpg	 r	 2.381	 GoodTrial	 allStim	 si
43	 5	 0	 x	 LineStimuli//3.3/stimNo129r0c0v3.3.jpg	 r	 2.000	 GoodTrial	 allStim	 si
44	 5	 1	 right	 LineStimuli//3.8/stimNo112r12c16v3.8.jpg	 l	 1.761	 GoodTrial	 allStim	 si
45	 5	 1	 right	 LineStimuli//4.3/stimNo102r10c19v4.3.jpg	 l	 1.496	 GoodTrial	 allStim	 si
46	 5	 1	 right	 LineStimuli//4.3/stimNo97r6c21v4.3.jpg	 l	 1.477	 GoodTrial	 allStim	 si
47	 5	 1	 left	 LineStimuli//3.8/stimNo109r11c8v3.8.jpg	 l	 1.584	 GoodTrial	 allStim	 si
48	 5	 0	 x	 LineStimuli//3.3/stimNo122r0c0v3.3.jpg	 r	 1.815	 GoodTrial	 allStim	 si
49	 5	 1	 right	 LineStimuli//2.8/stimNo111r9c15v2.8.jpg	 l	 1.691	 GoodTrial	 allStim	 si
50	 5	 1	 right	 LineStimuli//2.3/stimNo109r2c17v2.3.jpg	 l	 2.072	 GoodTrial	 allStim	 si
1	 6	 1	 left	 LineStimuli//3.3/stimNo81r15c8v3.3.jpg	 l	 1.732	 GoodTrial	 allStim	 si
2	 6	 1	 left	 LineStimuli//3.8/stimNo106r9c9v3.8.jpg	 l	 1.603	 GoodTrial	 allStim	 si
3	 6	 0	 x	 LineStimuli//4.3/stimNo159r0c0v4.3.jpg	 r	 2.447	 GoodTrial	 allStim	 si
4	 6	 0	 x	 LineStimuli//4.3/stimNo122r0c0v4.3.jpg	 r	 3.372	 GoodTrial	 allStim	 si
5	 6	 1	 left	 LineStimuli//3.8/stimNo103r11c7v3.8.jpg	 l	 1.566	 GoodTrial	 allStim	 si
6	 6	 1	 right	 LineStimuli//3.3/stimNo87r15c13v3.3.jpg	 l	 1.856	 GoodTrial	 allStim	 si
7	 6	 0	 x	 LineStimuli//2.8/stimNo147r0c0v2.8.jpg	 r	 2.863	 GoodTrial	 allStim	 si
8	 6	 1	 right	 LineStimuli//2.3/stimNo87r13c19v2.3.jpg	 l	 1.735	 GoodTrial	 allStim	 si
9	 6	 1	 right	 LineStimuli//1.8/stimNo108r9c21v1.8.jpg	 r	 4.820	 GoodTrial	 allStim	 si
10	 6	 0	 x	 LineStimuli//1.5/stimNo143r0c0v1.5.jpg	 x	 1.127	 GoodTrial	 allStim	 si
11	 6	 1	 left	 LineStimuli//1.5/stimNo99r10c3v1.5.jpg	 r	 3.203	 GoodTrial	 allStim	 si
12	 6	 1	 right	 LineStimuli//1.8/stimNo108r9c21v1.8.jpg	 r	 3.930	 GoodTrial	 allStim	 si
13	 6	 0	 x	 LineStimuli//2.3/stimNo135r0c0v2.3.jpg	 r	 4.953	 GoodTrial	 allStim	 si
14	 6	 1	 right	 LineStimuli//2.8/stimNo106r13c20v2.8.jpg	 l	 1.630	 GoodTrial	 allStim	 si
15	 6	 0	 x	 LineStimuli//3.3/stimNo148r0c0v3.3.jpg	 r	 2.312	 GoodTrial	 allStim	 si
16	 6	 0	 x	 LineStimuli//3.8/stimNo141r0c0v3.8.jpg	 r	 2.810	 GoodTrial	 allStim	 si
17	 6	 1	 left	 LineStimuli//4.3/stimNo110r6c7v4.3.jpg	 l	 1.552	 GoodTrial	 allStim	 si
18	 6	 0	 x	 LineStimuli//4.3/stimNo152r0c0v4.3.jpg	 r	 1.986	 GoodTrial	 allStim	 si
19	 6	 1	 left	 LineStimuli//3.8/stimNo103r11c7v3.8.jpg	 l	 1.586	 GoodTrial	 allStim	 si
20	 6	 1	 right	 LineStimuli//3.3/stimNo118r3c16v3.3.jpg	 l	 1.616	 GoodTrial	 allStim	 si
21	 6	 1	 left	 LineStimuli//2.8/stimNo88r15c3v2.8.jpg	 l	 1.756	 GoodTrial	 allStim	 si
22	 6	 1	 right	 LineStimuli//2.3/stimNo89r8c21v2.3.jpg	 l	 1.952	 GoodTrial	 allStim	 si
23	 6	 0	 x	 LineStimuli//1.8/stimNo135r0c0v1.8.jpg	 r	 2.724	 GoodTrial	 allStim	 si
24	 6	 0	 x	 LineStimuli//1.5/stimNo157r0c0v1.5.jpg	 r	 2.310	 GoodTrial	 allStim	 si
25	 6	 1	 left	 LineStimuli//1.5/stimNo91r9c3v1.5.jpg	 r	 3.137	 GoodTrial	 allStim	 si
26	 6	 0	 x	 LineStimuli//1.8/stimNo154r0c0v1.8.jpg	 r	 3.510	 GoodTrial	 allStim	 si
27	 6	 1	 right	 LineStimuli//2.3/stimNo98r12c21v2.3.jpg	 l	 1.718	 GoodTrial	 allStim	 si
28	 6	 1	 left	 LineStimuli//2.8/stimNo91r2c3v2.8.jpg	 l	 1.654	 GoodTrial	 allStim	 si
29	 6	 1	 right	 LineStimuli//3.3/stimNo112r5c15v3.3.jpg	 l	 1.520	 GoodTrial	 allStim	 si
30	 6	 1	 left	 LineStimuli//3.8/stimNo106r9c9v3.8.jpg	 l	 1.568	 GoodTrial	 allStim	 si
31	 6	 0	 x	 LineStimuli//4.3/stimNo151r0c0v4.3.jpg	 r	 2.054	 GoodTrial	 allStim	 si
32	 6	 1	 right	 LineStimuli//4.3/stimNo116r5c13v4.3.jpg	 l	 1.524	 GoodTrial	 allStim	 si
33	 6	 1	 left	 LineStimuli//3.8/stimNo116r7c3v3.8.jpg	 l	 1.480	 GoodTrial	 allStim	 si
34	 6	 1	 left	 LineStimuli//3.3/stimNo109r15c7v3.3.jpg	 l	 1.598	 GoodTrial	 allStim	 si
35	 6	 0	 x	 LineStimuli//2.8/stimNo157r0c0v2.8.jpg	 r	 1.850	 GoodTrial	 allStim	 si
36	 6	 1	 left	 LineStimuli//2.3/stimNo83r14c4v2.3.jpg	 l	 1.560	 GoodTrial	 allStim	 si
37	 6	 1	 left	 LineStimuli//1.8/stimNo103r15c10v1.8.jpg	 l	 1.912	 GoodTrial	 allStim	 si
38	 6	 1	 left	 LineStimuli//1.5/stimNo85r2c5v1.5.jpg	 r	 2.296	 GoodTrial	 allStim	 si
39	 6	 0	 x	 LineStimuli//1.5/stimNo158r0c0v1.5.jpg	 r	 2.742	 GoodTrial	 allStim	 si
40	 6	 0	 x	 LineStimuli//1.8/stimNo148r0c0v1.8.jpg	 r	 3.546	 GoodTrial	 allStim	 si
41	 6	 1	 right	 LineStimuli//2.3/stimNo109r2c17v2.3.jpg	 l	 2.328	 GoodTrial	 allStim	 si
42	 6	 1	 right	 LineStimuli//2.8/stimNo115r9c14v2.8.jpg	 l	 2.040	 GoodTrial	 allStim	 si
43	 6	 1	 right	 LineStimuli//3.3/stimNo99r6c17v3.3.jpg	 l	 1.537	 GoodTrial	 allStim	 si
44	 6	 1	 right	 LineStimuli//3.8/stimNo91r10c16v3.8.jpg	 l	 1.475	 GoodTrial	 allStim	 si
45	 6	 0	 x	 LineStimuli//4.3/stimNo153r0c0v4.3.jpg	 r	 2.365	 GoodTrial	 allStim	 si
46	 6	 1	 left	 LineStimuli//4.3/stimNo104r15c2v4.3.jpg	 l	 1.555	 GoodTrial	 allStim	 si
47	 6	 1	 right	 LineStimuli//3.8/stimNo94r6c17v3.8.jpg	 l	 1.558	 GoodTrial	 allStim	 si
48	 6	 1	 right	 LineStimuli//3.3/stimNo97r6c13v3.3.jpg	 l	 1.507	 GoodTrial	 allStim	 si
49	 6	 0	 x	 LineStimuli//2.8/stimNo131r0c0v2.8.jpg	 r	 2.622	 GoodTrial	 allStim	 si
50	 6	 1	 right	 LineStimuli//2.3/stimNo87r13c19v2.3.jpg	 l	 1.711	 GoodTrial	 allStim	 si
1	 7	 1	 right	 LineStimuli//3.3/stimNo91r12c16v3.3.jpg	 l	 2.889	 GoodTrial	 allStim	 si
2	 7	 0	 x	 LineStimuli//3.8/stimNo155r0c0v3.8.jpg	 r	 2.251	 GoodTrial	 allStim	 si
3	 7	 1	 right	 LineStimuli//4.3/stimNo114r10c15v4.3.jpg	 l	 1.469	 GoodTrial	 allStim	 si
4	 7	 0	 x	 LineStimuli//4.3/stimNo139r0c0v4.3.jpg	 r	 1.774	 GoodTrial	 allStim	 si
5	 7	 1	 right	 LineStimuli//3.8/stimNo117r6c17v3.8.jpg	 l	 1.553	 GoodTrial	 allStim	 si
6	 7	 0	 x	 LineStimuli//3.3/stimNo158r0c0v3.3.jpg	 r	 1.904	 GoodTrial	 allStim	 si
7	 7	 0	 x	 LineStimuli//2.8/stimNo136r0c0v2.8.jpg	 r	 2.961	 GoodTrial	 allStim	 si
8	 7	 0	 x	 LineStimuli//2.3/stimNo133r0c0v2.3.jpg	 r	 2.296	 GoodTrial	 allStim	 si
9	 7	 0	 x	 LineStimuli//1.8/stimNo122r0c0v1.8.jpg	 r	 2.622	 GoodTrial	 allStim	 si
10	 7	 0	 x	 LineStimuli//1.5/stimNo150r0c0v1.5.jpg	 r	 1.687	 GoodTrial	 allStim	 si
11	 7	 1	 right	 LineStimuli//1.5/stimNo118r9c20v1.5.jpg	 r	 1.815	 GoodTrial	 allStim	 si
12	 7	 0	 x	 LineStimuli//1.8/stimNo156r0c0v1.8.jpg	 r	 3.940	 GoodTrial	 allStim	 si
13	 7	 1	 left	 LineStimuli//2.3/stimNo100r8c6v2.3.jpg	 l	 1.881	 GoodTrial	 allStim	 si
14	 7	 0	 x	 LineStimuli//2.8/stimNo152r0c0v2.8.jpg	 r	 2.153	 GoodTrial	 allStim	 si
15	 7	 0	 x	 LineStimuli//3.3/stimNo138r0c0v3.3.jpg	 r	 2.023	 GoodTrial	 allStim	 si
16	 7	 1	 left	 LineStimuli//3.8/stimNo98r2c9v3.8.jpg	 l	 1.491	 GoodTrial	 allStim	 si
17	 7	 1	 left	 LineStimuli//4.3/stimNo93r9c9v4.3.jpg	 l	 1.585	 GoodTrial	 allStim	 si
18	 7	 0	 x	 LineStimuli//4.3/stimNo159r0c0v4.3.jpg	 r	 1.977	 GoodTrial	 allStim	 si
19	 7	 0	 x	 LineStimuli//3.8/stimNo129r0c0v3.8.jpg	 r	 1.907	 GoodTrial	 allStim	 si
20	 7	 0	 x	 LineStimuli//3.3/stimNo136r0c0v3.3.jpg	 r	 1.885	 GoodTrial	 allStim	 si
21	 7	 0	 x	 LineStimuli//2.8/stimNo121r0c0v2.8.jpg	 r	 2.055	 GoodTrial	 allStim	 si
22	 7	 1	 left	 LineStimuli//2.3/stimNo112r3c2v2.3.jpg	 l	 1.669	 GoodTrial	 allStim	 si
23	 7	 1	 right	 LineStimuli//1.8/stimNo117r10c16v1.8.jpg	 l	 2.481	 GoodTrial	 allStim	 si
24	 7	 1	 left	 LineStimuli//1.5/stimNo120r14c2v1.5.jpg	 l	 1.943	 GoodTrial	 allStim	 si
25	 7	 1	 right	 LineStimuli//1.5/stimNo103r13c17v1.5.jpg	 r	 3.306	 GoodTrial	 allStim	 si
26	 7	 0	 x	 LineStimuli//1.8/stimNo135r0c0v1.8.jpg	 l	 3.545	 GoodTrial	 allStim	 si
27	 7	 0	 x	 LineStimuli//2.3/stimNo155r0c0v2.3.jpg	 r	 5.783	 GoodTrial	 allStim	 si
28	 7	 0	 x	 LineStimuli//2.8/stimNo144r0c0v2.8.jpg	 r	 3.501	 GoodTrial	 allStim	 si
29	 7	 1	 left	 LineStimuli//3.3/stimNo100r3c3v3.3.jpg	 l	 1.568	 GoodTrial	 allStim	 si
30	 7	 0	 x	 LineStimuli//3.8/stimNo150r0c0v3.8.jpg	 r	 2.180	 GoodTrial	 allStim	 si
31	 7	 1	 right	 LineStimuli//4.3/stimNo81r10c14v4.3.jpg	 l	 1.525	 GoodTrial	 allStim	 si
32	 7	 1	 left	 LineStimuli//4.3/stimNo105r14c6v4.3.jpg	 l	 1.613	 GoodTrial	 allStim	 si
33	 7	 0	 x	 LineStimuli//3.8/stimNo150r0c0v3.8.jpg	 r	 1.909	 GoodTrial	 allStim	 si
34	 7	 0	 x	 LineStimuli//3.3/stimNo140r0c0v3.3.jpg	 r	 2.326	 GoodTrial	 allStim	 si
35	 7	 0	 x	 LineStimuli//2.8/stimNo146r0c0v2.8.jpg	 r	 2.086	 GoodTrial	 allStim	 si
36	 7	 1	 right	 LineStimuli//2.3/stimNo102r6c18v2.3.jpg	 l	 1.649	 GoodTrial	 allStim	 si
37	 7	 0	 x	 LineStimuli//1.8/stimNo127r0c0v1.8.jpg	 r	 2.296	 GoodTrial	 allStim	 si
38	 7	 1	 right	 LineStimuli//1.5/stimNo119r6c19v1.5.jpg	 l	 3.438	 GoodTrial	 allStim	 si
39	 7	 1	 right	 LineStimuli//1.5/stimNo93r14c18v1.5.jpg	 r	 3.127	 GoodTrial	 allStim	 si
40	 7	 0	 x	 LineStimuli//1.8/stimNo141r0c0v1.8.jpg	 r	 3.465	 GoodTrial	 allStim	 si
41	 7	 0	 x	 LineStimuli//2.3/stimNo136r0c0v2.3.jpg	 r	 1.979	 GoodTrial	 allStim	 si
42	 7	 1	 left	 LineStimuli//2.8/stimNo116r4c7v2.8.jpg	 l	 1.570	 GoodTrial	 allStim	 si
43	 7	 0	 x	 LineStimuli//3.3/stimNo137r0c0v3.3.jpg	 r	 1.952	 GoodTrial	 allStim	 si
44	 7	 0	 x	 LineStimuli//3.8/stimNo122r0c0v3.8.jpg	 r	 1.956	 GoodTrial	 allStim	 si
45	 7	 0	 x	 LineStimuli//4.3/stimNo150r0c0v4.3.jpg	 r	 1.976	 GoodTrial	 allStim	 si
46	 7	 0	 x	 LineStimuli//4.3/stimNo143r0c0v4.3.jpg	 r	 2.102	 GoodTrial	 allStim	 si
47	 7	 1	 right	 LineStimuli//3.8/stimNo94r6c17v3.8.jpg	 l	 1.552	 GoodTrial	 allStim	 si
48	 7	 1	 right	 LineStimuli//3.3/stimNo91r12c16v3.3.jpg	 l	 2.188	 GoodTrial	 allStim	 si
49	 7	 1	 left	 LineStimuli//2.8/stimNo105r5c4v2.8.jpg	 l	 1.622	 GoodTrial	 allStim	 si
50	 7	 1	 right	 LineStimuli//2.3/stimNo91r11c20v2.3.jpg	 l	 1.570	 GoodTrial	 allStim	 si
