Trial	Block	Target_pr	Target_side	Name	Key	RT	Message	Block_Type	Condition
1	 1	 1	 left	 LineStimuli//3.3/stimNo117r2c5v3.3.jpg	 l	 13.624	 GoodTrial	 allStim	 si
2	 1	 1	 left	 LineStimuli//3.8/stimNo113r14c9v3.8.jpg	 r	 4.630	 GoodTrial	 allStim	 si
3	 1	 0	 x	 LineStimuli//4.3/stimNo150r0c0v4.3.jpg	 l	 7.012	 GoodTrial	 allStim	 si
4	 1	 0	 x	 LineStimuli//4.3/stimNo151r0c0v4.3.jpg	 l	 13.685	 GoodTrial	 allStim	 si
5	 1	 1	 left	 LineStimuli//3.8/stimNo108r3c6v3.8.jpg	 r	 10.312	 GoodTrial	 allStim	 si
6	 1	 0	 x	 LineStimuli//3.3/stimNo135r0c0v3.3.jpg	 l	 31.729	 GoodTrial	 allStim	 si
7	 1	 1	 right	 LineStimuli//2.8/stimNo114r8c19v2.8.jpg	 l	 3.048	 GoodTrial	 allStim	 si
8	 1	 1	 right	 LineStimuli//2.3/stimNo92r10c17v2.3.jpg	 r	 17.183	 GoodTrial	 allStim	 si
9	 1	 1	 left	 LineStimuli//1.8/stimNo110r4c7v1.8.jpg	 l	 4.537	 GoodTrial	 allStim	 si
10	 1	 1	 left	 LineStimuli//1.5/stimNo91r9c3v1.5.jpg	 l	 15.930	 GoodTrial	 allStim	 si
11	 1	 1	 right	 LineStimuli//1.5/stimNo118r9c20v1.5.jpg	 r	 17.729	 GoodTrial	 allStim	 si
12	 1	 0	 x	 LineStimuli//1.8/stimNo159r0c0v1.8.jpg	 r	 17.615	 GoodTrial	 allStim	 si
13	 1	 0	 x	 LineStimuli//2.3/stimNo134r0c0v2.3.jpg	 l	 47.584	 GoodTrial	 allStim	 si
14	 1	 0	 x	 LineStimuli//2.8/stimNo146r0c0v2.8.jpg	 r	 32.758	 GoodTrial	 allStim	 si
15	 1	 0	 x	 LineStimuli//3.3/stimNo122r0c0v3.3.jpg	 r	 33.801	 GoodTrial	 allStim	 si
16	 1	 1	 right	 LineStimuli//3.8/stimNo90r8c17v3.8.jpg	 l	 3.168	 GoodTrial	 allStim	 si
17	 1	 0	 x	 LineStimuli//4.3/stimNo141r0c0v4.3.jpg	 r	 8.904	 GoodTrial	 allStim	 si
18	 1	 0	 x	 LineStimuli//4.3/stimNo150r0c0v4.3.jpg	 r	 11.888	 GoodTrial	 allStim	 si
19	 1	 1	 right	 LineStimuli//3.8/stimNo88r10c17v3.8.jpg	 l	 3.654	 GoodTrial	 allStim	 si
20	 1	 1	 right	 LineStimuli//3.3/stimNo120r8c14v3.3.jpg	 l	 2.720	 GoodTrial	 allStim	 si
21	 1	 0	 x	 LineStimuli//2.8/stimNo148r0c0v2.8.jpg	 r	 8.224	 GoodTrial	 allStim	 si
22	 1	 0	 x	 LineStimuli//2.3/stimNo145r0c0v2.3.jpg	 l	 8.811	 GoodTrial	 allStim	 si
23	 1	 0	 x	 LineStimuli//1.8/stimNo126r0c0v1.8.jpg	 r	 12.085	 GoodTrial	 allStim	 si
24	 1	 1	 left	 LineStimuli//1.5/stimNo89r8c9v1.5.jpg	 r	 12.687	 GoodTrial	 allStim	 si
25	 1	 0	 x	 LineStimuli//1.5/stimNo158r0c0v1.5.jpg	 r	 23.759	 GoodTrial	 allStim	 si
26	 1	 0	 x	 LineStimuli//1.8/stimNo160r0c0v1.8.jpg	 r	 25.655	 GoodTrial	 allStim	 si
27	 1	 1	 left	 LineStimuli//2.3/stimNo95r13c9v2.3.jpg	 l	 3.360	 GoodTrial	 allStim	 si
28	 1	 0	 x	 LineStimuli//2.8/stimNo121r0c0v2.8.jpg	 r	 4.644	 GoodTrial	 allStim	 si
29	 1	 0	 x	 LineStimuli//3.3/stimNo124r0c0v3.3.jpg	 r	 5.691	 GoodTrial	 allStim	 si
30	 1	 1	 right	 LineStimuli//3.8/stimNo99r2c13v3.8.jpg	 r	 7.071	 GoodTrial	 allStim	 si
31	 1	 0	 x	 LineStimuli//4.3/stimNo129r0c0v4.3.jpg	 r	 14.650	 GoodTrial	 allStim	 si
32	 1	 0	 x	 LineStimuli//4.3/stimNo139r0c0v4.3.jpg	 r	 13.280	 GoodTrial	 allStim	 si
33	 1	 1	 right	 LineStimuli//3.8/stimNo91r10c16v3.8.jpg	 l	 2.228	 GoodTrial	 allStim	 si
34	 1	 1	 left	 LineStimuli//3.3/stimNo81r15c8v3.3.jpg	 l	 2.724	 GoodTrial	 allStim	 si
35	 1	 0	 x	 LineStimuli//2.8/stimNo121r0c0v2.8.jpg	 l	 8.656	 GoodTrial	 allStim	 si
36	 1	 0	 x	 LineStimuli//2.3/stimNo125r0c0v2.3.jpg	 r	 10.738	 GoodTrial	 allStim	 si
37	 1	 1	 right	 LineStimuli//1.8/stimNo100r9c13v1.8.jpg	 r	 5.528	 GoodTrial	 allStim	 si
38	 1	 1	 right	 LineStimuli//1.5/stimNo93r14c18v1.5.jpg	 r	 24.777	 GoodTrial	 allStim	 si
39	 1	 1	 left	 LineStimuli//1.5/stimNo96r15c4v1.5.jpg	 r	 31.478	 GoodTrial	 allStim	 si
40	 1	 1	 left	 LineStimuli//1.8/stimNo106r13c9v1.8.jpg	 l	 8.400	 GoodTrial	 allStim	 si
41	 1	 0	 x	 LineStimuli//2.3/stimNo153r0c0v2.3.jpg	 r	 16.377	 GoodTrial	 allStim	 si
42	 1	 1	 left	 LineStimuli//2.8/stimNo98r15c2v2.8.jpg	 l	 6.305	 GoodTrial	 allStim	 si
43	 1	 1	 left	 LineStimuli//3.3/stimNo92r10c7v3.3.jpg	 l	 2.377	 GoodTrial	 allStim	 si
44	 1	 0	 x	 LineStimuli//3.8/stimNo152r0c0v3.8.jpg	 r	 7.439	 GoodTrial	 allStim	 si
45	 1	 0	 x	 LineStimuli//4.3/stimNo148r0c0v4.3.jpg	 r	 10.337	 GoodTrial	 allStim	 si
46	 1	 1	 left	 LineStimuli//4.3/stimNo87r3c5v4.3.jpg	 l	 2.253	 GoodTrial	 allStim	 si
47	 1	 1	 left	 LineStimuli//3.8/stimNo100r13c6v3.8.jpg	 l	 2.001	 GoodTrial	 allStim	 si
48	 1	 0	 x	 LineStimuli//3.3/stimNo141r0c0v3.3.jpg	 r	 5.865	 GoodTrial	 allStim	 si
49	 1	 0	 x	 LineStimuli//2.8/stimNo138r0c0v2.8.jpg	 r	 7.161	 GoodTrial	 allStim	 si
50	 1	 0	 x	 LineStimuli//2.3/stimNo122r0c0v2.3.jpg	 r	 6.906	 GoodTrial	 allStim	 si
1	 2	 0	 x	 LineStimuli//3.3/stimNo124r0c0v3.3.jpg	 r	 11.579	 GoodTrial	 allStim	 si
2	 2	 0	 x	 LineStimuli//3.8/stimNo121r0c0v3.8.jpg	 r	 8.856	 GoodTrial	 allStim	 si
3	 2	 0	 x	 LineStimuli//4.3/stimNo141r0c0v4.3.jpg	 r	 7.424	 GoodTrial	 allStim	 si
4	 2	 1	 left	 LineStimuli//4.3/stimNo87r3c5v4.3.jpg	 l	 2.094	 GoodTrial	 allStim	 si
5	 2	 0	 x	 LineStimuli//3.8/stimNo137r0c0v3.8.jpg	 r	 4.120	 GoodTrial	 allStim	 si
6	 2	 0	 x	 LineStimuli//3.3/stimNo137r0c0v3.3.jpg	 r	 4.102	 GoodTrial	 allStim	 si
7	 2	 1	 left	 LineStimuli//2.8/stimNo102r3c2v2.8.jpg	 l	 4.392	 GoodTrial	 allStim	 si
8	 2	 1	 right	 LineStimuli//2.3/stimNo109r2c17v2.3.jpg	 l	 2.082	 GoodTrial	 allStim	 si
9	 2	 1	 left	 LineStimuli//1.8/stimNo81r6c8v1.8.jpg	 r	 15.622	 GoodTrial	 allStim	 si
10	 2	 1	 left	 LineStimuli//1.5/stimNo102r7c6v1.5.jpg	 l	 4.952	 GoodTrial	 allStim	 si
11	 2	 1	 left	 LineStimuli//1.5/stimNo96r15c4v1.5.jpg	 l	 16.370	 GoodTrial	 allStim	 si
12	 2	 1	 right	 LineStimuli//1.8/stimNo97r15c18v1.8.jpg	 l	 19.353	 GoodTrial	 allStim	 si
13	 2	 1	 left	 LineStimuli//2.3/stimNo100r8c6v2.3.jpg	 l	 2.191	 GoodTrial	 allStim	 si
14	 2	 0	 x	 LineStimuli//2.8/stimNo130r0c0v2.8.jpg	 r	 5.390	 GoodTrial	 allStim	 si
15	 2	 0	 x	 LineStimuli//3.3/stimNo147r0c0v3.3.jpg	 r	 6.474	 GoodTrial	 allStim	 si
16	 2	 0	 x	 LineStimuli//3.8/stimNo151r0c0v3.8.jpg	 r	 5.784	 GoodTrial	 allStim	 si
17	 2	 0	 x	 LineStimuli//4.3/stimNo135r0c0v4.3.jpg	 r	 4.073	 GoodTrial	 allStim	 si
18	 2	 1	 left	 LineStimuli//4.3/stimNo93r9c9v4.3.jpg	 l	 3.536	 GoodTrial	 allStim	 si
19	 2	 0	 x	 LineStimuli//3.8/stimNo140r0c0v3.8.jpg	 r	 9.685	 GoodTrial	 allStim	 si
20	 2	 1	 right	 LineStimuli//3.3/stimNo112r5c15v3.3.jpg	 l	 2.960	 GoodTrial	 allStim	 si
21	 2	 1	 right	 LineStimuli//2.8/stimNo81r8c14v2.8.jpg	 l	 2.881	 GoodTrial	 allStim	 si
22	 2	 1	 left	 LineStimuli//2.3/stimNo112r3c2v2.3.jpg	 l	 7.335	 GoodTrial	 allStim	 si
23	 2	 1	 right	 LineStimuli//1.8/stimNo114r8c13v1.8.jpg	 l	 10.697	 GoodTrial	 allStim	 si
24	 2	 0	 x	 LineStimuli//1.5/stimNo143r0c0v1.5.jpg	 l	 16.897	 GoodTrial	 allStim	 si
25	 2	 0	 x	 LineStimuli//1.5/stimNo137r0c0v1.5.jpg	 r	 12.815	 GoodTrial	 allStim	 si
26	 2	 1	 right	 LineStimuli//1.8/stimNo102r14c17v1.8.jpg	 r	 9.371	 GoodTrial	 allStim	 si
27	 2	 1	 right	 LineStimuli//2.3/stimNo85r4c15v2.3.jpg	 l	 2.369	 GoodTrial	 allStim	 si
28	 2	 0	 x	 LineStimuli//2.8/stimNo158r0c0v2.8.jpg	 r	 5.895	 GoodTrial	 allStim	 si
29	 2	 1	 left	 LineStimuli//3.3/stimNo104r4c4v3.3.jpg	 l	 2.124	 GoodTrial	 allStim	 si
30	 2	 0	 x	 LineStimuli//3.8/stimNo127r0c0v3.8.jpg	 r	 2.731	 GoodTrial	 allStim	 si
31	 2	 1	 left	 LineStimuli//4.3/stimNo95r11c9v4.3.jpg	 l	 2.215	 GoodTrial	 allStim	 si
32	 2	 1	 left	 LineStimuli//4.3/stimNo88r10c3v4.3.jpg	 l	 1.758	 GoodTrial	 allStim	 si
33	 2	 1	 left	 LineStimuli//3.8/stimNo98r2c9v3.8.jpg	 l	 1.890	 GoodTrial	 allStim	 si
34	 2	 1	 left	 LineStimuli//3.3/stimNo119r15c7v3.3.jpg	 l	 1.828	 GoodTrial	 allStim	 si
35	 2	 1	 left	 LineStimuli//2.8/stimNo108r13c6v2.8.jpg	 l	 1.998	 GoodTrial	 allStim	 si
36	 2	 1	 left	 LineStimuli//2.3/stimNo112r3c2v2.3.jpg	 l	 1.734	 GoodTrial	 allStim	 si
37	 2	 1	 left	 LineStimuli//1.8/stimNo120r14c9v1.8.jpg	 l	 2.548	 GoodTrial	 allStim	 si
38	 2	 0	 x	 LineStimuli//1.5/stimNo124r0c0v1.5.jpg	 r	 17.354	 GoodTrial	 allStim	 si
39	 2	 0	 x	 LineStimuli//1.5/stimNo147r0c0v1.5.jpg	 x	 0.000	 GoodTrial	 allStim	 si
40	 2	 1	 left	 LineStimuli//1.8/stimNo91r14c4v1.8.jpg	 r	 10.647	 GoodTrial	 allStim	 si
41	 2	 1	 right	 LineStimuli//2.3/stimNo91r11c20v2.3.jpg	 l	 2.675	 GoodTrial	 allStim	 si
42	 2	 0	 x	 LineStimuli//2.8/stimNo124r0c0v2.8.jpg	 r	 18.592	 GoodTrial	 allStim	 si
43	 2	 0	 x	 LineStimuli//3.3/stimNo145r0c0v3.3.jpg	 r	 10.566	 GoodTrial	 allStim	 si
44	 2	 0	 x	 LineStimuli//3.8/stimNo126r0c0v3.8.jpg	 r	 5.057	 GoodTrial	 allStim	 si
45	 2	 1	 left	 LineStimuli//4.3/stimNo90r10c4v4.3.jpg	 l	 11.579	 GoodTrial	 allStim	 si
46	 2	 1	 right	 LineStimuli//4.3/stimNo89r3c17v4.3.jpg	 l	 4.700	 GoodTrial	 allStim	 si
47	 2	 1	 right	 LineStimuli//3.8/stimNo82r9c21v3.8.jpg	 l	 1.809	 GoodTrial	 allStim	 si
48	 2	 0	 x	 LineStimuli//3.3/stimNo134r0c0v3.3.jpg	 r	 5.857	 GoodTrial	 allStim	 si
49	 2	 1	 left	 LineStimuli//2.8/stimNo113r9c5v2.8.jpg	 l	 5.395	 GoodTrial	 allStim	 si
50	 2	 1	 left	 LineStimuli//2.3/stimNo106r9c9v2.3.jpg	 l	 2.305	 GoodTrial	 allStim	 si
1	 3	 1	 left	 LineStimuli//3.3/stimNo85r6c4v3.3.jpg	 l	 2.275	 GoodTrial	 allStim	 si
2	 3	 1	 left	 LineStimuli//3.8/stimNo119r9c8v3.8.jpg	 l	 1.949	 GoodTrial	 allStim	 si
3	 3	 0	 x	 LineStimuli//4.3/stimNo153r0c0v4.3.jpg	 r	 3.089	 GoodTrial	 allStim	 si
4	 3	 1	 right	 LineStimuli//4.3/stimNo92r2c20v4.3.jpg	 l	 1.983	 GoodTrial	 allStim	 si
5	 3	 1	 left	 LineStimuli//3.8/stimNo103r11c7v3.8.jpg	 l	 2.147	 GoodTrial	 allStim	 si
6	 3	 0	 x	 LineStimuli//3.3/stimNo130r0c0v3.3.jpg	 r	 13.589	 GoodTrial	 allStim	 si
7	 3	 0	 x	 LineStimuli//2.8/stimNo122r0c0v2.8.jpg	 l	 5.146	 GoodTrial	 allStim	 si
8	 3	 1	 right	 LineStimuli//2.3/stimNo103r11c21v2.3.jpg	 l	 1.687	 GoodTrial	 allStim	 si
9	 3	 1	 left	 LineStimuli//1.8/stimNo116r4c7v1.8.jpg	 l	 4.180	 GoodTrial	 allStim	 si
10	 3	 0	 x	 LineStimuli//1.5/stimNo141r0c0v1.5.jpg	 r	 7.856	 GoodTrial	 allStim	 si
11	 3	 1	 left	 LineStimuli//1.5/stimNo102r7c6v1.5.jpg	 r	 10.598	 GoodTrial	 allStim	 si
12	 3	 0	 x	 LineStimuli//1.8/stimNo142r0c0v1.8.jpg	 r	 22.520	 GoodTrial	 allStim	 si
13	 3	 0	 x	 LineStimuli//2.3/stimNo132r0c0v2.3.jpg	 r	 13.314	 GoodTrial	 allStim	 si
14	 3	 0	 x	 LineStimuli//2.8/stimNo160r0c0v2.8.jpg	 r	 3.866	 GoodTrial	 allStim	 si
15	 3	 0	 x	 LineStimuli//3.3/stimNo121r0c0v3.3.jpg	 r	 3.695	 GoodTrial	 allStim	 si
16	 3	 0	 x	 LineStimuli//3.8/stimNo134r0c0v3.8.jpg	 r	 4.738	 GoodTrial	 allStim	 si
17	 3	 0	 x	 LineStimuli//4.3/stimNo125r0c0v4.3.jpg	 r	 3.350	 GoodTrial	 allStim	 si
18	 3	 0	 x	 LineStimuli//4.3/stimNo144r0c0v4.3.jpg	 r	 3.893	 GoodTrial	 allStim	 si
19	 3	 1	 right	 LineStimuli//3.8/stimNo90r8c17v3.8.jpg	 l	 2.122	 GoodTrial	 allStim	 si
20	 3	 0	 x	 LineStimuli//3.3/stimNo137r0c0v3.3.jpg	 r	 3.288	 GoodTrial	 allStim	 si
21	 3	 1	 left	 LineStimuli//2.8/stimNo82r4c6v2.8.jpg	 l	 1.733	 GoodTrial	 allStim	 si
22	 3	 1	 left	 LineStimuli//2.3/stimNo104r2c4v2.3.jpg	 r	 11.946	 GoodTrial	 allStim	 si
23	 3	 0	 x	 LineStimuli//1.8/stimNo133r0c0v1.8.jpg	 r	 10.568	 GoodTrial	 allStim	 si
24	 3	 1	 right	 LineStimuli//1.5/stimNo103r13c17v1.5.jpg	 r	 17.631	 GoodTrial	 allStim	 si
25	 3	 1	 right	 LineStimuli//1.5/stimNo111r7c17v1.5.jpg	 l	 4.265	 GoodTrial	 allStim	 si
26	 3	 0	 x	 LineStimuli//1.8/stimNo149r0c0v1.8.jpg	 r	 14.305	 GoodTrial	 allStim	 si
27	 3	 0	 x	 LineStimuli//2.3/stimNo122r0c0v2.3.jpg	 r	 6.308	 GoodTrial	 allStim	 si
28	 3	 0	 x	 LineStimuli//2.8/stimNo145r0c0v2.8.jpg	 r	 4.397	 GoodTrial	 allStim	 si
29	 3	 0	 x	 LineStimuli//3.3/stimNo129r0c0v3.3.jpg	 r	 6.295	 GoodTrial	 allStim	 si
30	 3	 1	 left	 LineStimuli//3.8/stimNo93r8c2v3.8.jpg	 r	 6.558	 GoodTrial	 allStim	 si
31	 3	 1	 right	 LineStimuli//4.3/stimNo99r14c18v4.3.jpg	 l	 2.025	 GoodTrial	 allStim	 si
32	 3	 0	 x	 LineStimuli//4.3/stimNo130r0c0v4.3.jpg	 r	 3.587	 GoodTrial	 allStim	 si
33	 3	 0	 x	 LineStimuli//3.8/stimNo131r0c0v3.8.jpg	 r	 4.186	 GoodTrial	 allStim	 si
34	 3	 1	 right	 LineStimuli//3.3/stimNo84r6c16v3.3.jpg	 l	 1.777	 GoodTrial	 allStim	 si
35	 3	 0	 x	 LineStimuli//2.8/stimNo129r0c0v2.8.jpg	 r	 3.913	 GoodTrial	 allStim	 si
36	 3	 1	 left	 LineStimuli//2.3/stimNo94r8c9v2.3.jpg	 l	 3.861	 GoodTrial	 allStim	 si
37	 3	 0	 x	 LineStimuli//1.8/stimNo121r0c0v1.8.jpg	 l	 0.032	 EARLY_RESPONSE	 allStim	 si
38	 3	 0	 x	 LineStimuli//1.5/stimNo159r0c0v1.5.jpg	 r	 12.711	 GoodTrial	 allStim	 si
39	 3	 0	 x	 LineStimuli//1.5/stimNo136r0c0v1.5.jpg	 r	 14.365	 GoodTrial	 allStim	 si
40	 3	 1	 left	 LineStimuli//1.8/stimNo110r4c7v1.8.jpg	 l	 4.165	 GoodTrial	 allStim	 si
41	 3	 0	 x	 LineStimuli//2.3/stimNo136r0c0v2.3.jpg	 r	 5.666	 GoodTrial	 allStim	 si
42	 3	 0	 x	 LineStimuli//2.8/stimNo133r0c0v2.8.jpg	 r	 3.467	 GoodTrial	 allStim	 si
43	 3	 1	 right	 LineStimuli//3.3/stimNo97r6c13v3.3.jpg	 l	 2.602	 GoodTrial	 allStim	 si
44	 3	 0	 x	 LineStimuli//3.8/stimNo148r0c0v3.8.jpg	 r	 3.239	 GoodTrial	 allStim	 si
45	 3	 0	 x	 LineStimuli//4.3/stimNo153r0c0v4.3.jpg	 r	 4.340	 GoodTrial	 allStim	 si
46	 3	 0	 x	 LineStimuli//4.3/stimNo149r0c0v4.3.jpg	 r	 4.014	 GoodTrial	 allStim	 si
47	 3	 1	 right	 LineStimuli//3.8/stimNo81r3c21v3.8.jpg	 l	 2.066	 GoodTrial	 allStim	 si
48	 3	 1	 left	 LineStimuli//3.3/stimNo103r6c6v3.3.jpg	 l	 2.214	 GoodTrial	 allStim	 si
49	 3	 0	 x	 LineStimuli//2.8/stimNo123r0c0v2.8.jpg	 r	 3.574	 GoodTrial	 allStim	 si
50	 3	 1	 left	 LineStimuli//2.3/stimNo117r11c8v2.3.jpg	 l	 2.754	 GoodTrial	 allStim	 si
1	 4	 0	 x	 LineStimuli//3.3/stimNo130r0c0v3.3.jpg	 r	 3.427	 GoodTrial	 allStim	 si
2	 4	 1	 right	 LineStimuli//3.8/stimNo102r10c17v3.8.jpg	 l	 2.080	 GoodTrial	 allStim	 si
3	 4	 0	 x	 LineStimuli//4.3/stimNo143r0c0v4.3.jpg	 r	 9.376	 GoodTrial	 allStim	 si
4	 4	 1	 right	 LineStimuli//4.3/stimNo94r12c13v4.3.jpg	 l	 2.001	 GoodTrial	 allStim	 si
5	 4	 0	 x	 LineStimuli//3.8/stimNo152r0c0v3.8.jpg	 r	 1.981	 GoodTrial	 allStim	 si
6	 4	 1	 left	 LineStimuli//3.3/stimNo81r15c8v3.3.jpg	 l	 2.836	 GoodTrial	 allStim	 si
7	 4	 1	 right	 LineStimuli//2.8/stimNo103r3c19v2.8.jpg	 l	 2.009	 GoodTrial	 allStim	 si
8	 4	 1	 left	 LineStimuli//2.3/stimNo95r13c9v2.3.jpg	 l	 1.930	 GoodTrial	 allStim	 si
9	 4	 0	 x	 LineStimuli//1.8/stimNo155r0c0v1.8.jpg	 r	 9.728	 GoodTrial	 allStim	 si
10	 4	 0	 x	 LineStimuli//1.5/stimNo155r0c0v1.5.jpg	 r	 14.353	 GoodTrial	 allStim	 si
11	 4	 1	 right	 LineStimuli//1.5/stimNo82r11c15v1.5.jpg	 r	 15.909	 GoodTrial	 allStim	 si
12	 4	 0	 x	 LineStimuli//1.8/stimNo158r0c0v1.8.jpg	 r	 19.205	 GoodTrial	 allStim	 si
13	 4	 0	 x	 LineStimuli//2.3/stimNo134r0c0v2.3.jpg	 r	 5.397	 GoodTrial	 allStim	 si
14	 4	 0	 x	 LineStimuli//2.8/stimNo156r0c0v2.8.jpg	 r	 4.953	 GoodTrial	 allStim	 si
15	 4	 0	 x	 LineStimuli//3.3/stimNo135r0c0v3.3.jpg	 r	 4.017	 GoodTrial	 allStim	 si
16	 4	 1	 right	 LineStimuli//3.8/stimNo85r3c13v3.8.jpg	 l	 2.095	 GoodTrial	 allStim	 si
17	 4	 0	 x	 LineStimuli//4.3/stimNo157r0c0v4.3.jpg	 r	 2.955	 GoodTrial	 allStim	 si
18	 4	 1	 right	 LineStimuli//4.3/stimNo118r11c13v4.3.jpg	 l	 1.875	 GoodTrial	 allStim	 si
19	 4	 0	 x	 LineStimuli//3.8/stimNo157r0c0v3.8.jpg	 r	 3.105	 GoodTrial	 allStim	 si
20	 4	 1	 right	 LineStimuli//3.3/stimNo107r2c17v3.3.jpg	 l	 1.824	 GoodTrial	 allStim	 si
21	 4	 1	 right	 LineStimuli//2.8/stimNo95r9c18v2.8.jpg	 l	 2.079	 GoodTrial	 allStim	 si
22	 4	 0	 x	 LineStimuli//2.3/stimNo142r0c0v2.3.jpg	 r	 6.167	 GoodTrial	 allStim	 si
23	 4	 1	 left	 LineStimuli//1.8/stimNo94r13c8v1.8.jpg	 l	 4.913	 GoodTrial	 allStim	 si
24	 4	 0	 x	 LineStimuli//1.5/stimNo149r0c0v1.5.jpg	 r	 5.985	 GoodTrial	 allStim	 si
25	 4	 0	 x	 LineStimuli//1.5/stimNo135r0c0v1.5.jpg	 r	 9.826	 GoodTrial	 allStim	 si
26	 4	 1	 left	 LineStimuli//1.8/stimNo110r4c7v1.8.jpg	 l	 2.396	 GoodTrial	 allStim	 si
27	 4	 1	 left	 LineStimuli//2.3/stimNo106r9c9v2.3.jpg	 l	 2.888	 GoodTrial	 allStim	 si
28	 4	 1	 right	 LineStimuli//2.8/stimNo118r5c16v2.8.jpg	 l	 1.847	 GoodTrial	 allStim	 si
29	 4	 1	 right	 LineStimuli//3.3/stimNo99r6c17v3.3.jpg	 l	 2.040	 GoodTrial	 allStim	 si
30	 4	 1	 left	 LineStimuli//3.8/stimNo120r5c3v3.8.jpg	 l	 1.925	 GoodTrial	 allStim	 si
31	 4	 0	 x	 LineStimuli//4.3/stimNo142r0c0v4.3.jpg	 r	 5.548	 GoodTrial	 allStim	 si
32	 4	 1	 right	 LineStimuli//4.3/stimNo112r10c16v4.3.jpg	 l	 1.786	 GoodTrial	 allStim	 si
33	 4	 1	 left	 LineStimuli//3.8/stimNo100r13c6v3.8.jpg	 l	 3.264	 GoodTrial	 allStim	 si
34	 4	 0	 x	 LineStimuli//3.3/stimNo159r0c0v3.3.jpg	 r	 4.269	 GoodTrial	 allStim	 si
35	 4	 1	 right	 LineStimuli//2.8/stimNo118r5c16v2.8.jpg	 l	 1.808	 GoodTrial	 allStim	 si
36	 4	 0	 x	 LineStimuli//2.3/stimNo124r0c0v2.3.jpg	 r	 5.215	 GoodTrial	 allStim	 si
37	 4	 1	 left	 LineStimuli//1.8/stimNo98r15c5v1.8.jpg	 l	 2.762	 GoodTrial	 allStim	 si
38	 4	 1	 right	 LineStimuli//1.5/stimNo81r6c17v1.5.jpg	 l	 1.940	 GoodTrial	 allStim	 si
39	 4	 1	 left	 LineStimuli//1.5/stimNo113r4c4v1.5.jpg	 l	 5.145	 GoodTrial	 allStim	 si
40	 4	 1	 right	 LineStimuli//1.8/stimNo99r12c16v1.8.jpg	 l	 2.506	 GoodTrial	 allStim	 si
41	 4	 1	 right	 LineStimuli//2.3/stimNo107r11c15v2.3.jpg	 l	 1.834	 GoodTrial	 allStim	 si
42	 4	 1	 right	 LineStimuli//2.8/stimNo81r8c14v2.8.jpg	 l	 3.962	 GoodTrial	 allStim	 si
43	 4	 1	 right	 LineStimuli//3.3/stimNo107r2c17v3.3.jpg	 l	 1.810	 GoodTrial	 allStim	 si
44	 4	 0	 x	 LineStimuli//3.8/stimNo131r0c0v3.8.jpg	 r	 2.965	 GoodTrial	 allStim	 si
45	 4	 0	 x	 LineStimuli//4.3/stimNo142r0c0v4.3.jpg	 r	 2.357	 GoodTrial	 allStim	 si
46	 4	 1	 left	 LineStimuli//4.3/stimNo85r3c5v4.3.jpg	 l	 1.770	 GoodTrial	 allStim	 si
47	 4	 1	 left	 LineStimuli//3.8/stimNo104r12c8v3.8.jpg	 l	 2.298	 GoodTrial	 allStim	 si
48	 4	 0	 x	 LineStimuli//3.3/stimNo150r0c0v3.3.jpg	 r	 6.947	 GoodTrial	 allStim	 si
49	 4	 1	 right	 LineStimuli//2.8/stimNo111r9c15v2.8.jpg	 l	 2.916	 GoodTrial	 allStim	 si
50	 4	 0	 x	 LineStimuli//2.3/stimNo146r0c0v2.3.jpg	 r	 2.652	 GoodTrial	 allStim	 si
1	 5	 1	 right	 LineStimuli//3.3/stimNo114r11c21v3.3.jpg	 l	 2.046	 GoodTrial	 allStim	 si
2	 5	 0	 x	 LineStimuli//3.8/stimNo134r0c0v3.8.jpg	 l	 5.200	 GoodTrial	 allStim	 si
3	 5	 1	 right	 LineStimuli//4.3/stimNo94r12c13v4.3.jpg	 l	 1.759	 GoodTrial	 allStim	 si
4	 5	 0	 x	 LineStimuli//4.3/stimNo153r0c0v4.3.jpg	 r	 2.225	 GoodTrial	 allStim	 si
5	 5	 1	 right	 LineStimuli//3.8/stimNo94r6c17v3.8.jpg	 l	 1.656	 GoodTrial	 allStim	 si
6	 5	 0	 x	 LineStimuli//3.3/stimNo150r0c0v3.3.jpg	 r	 3.164	 GoodTrial	 allStim	 si
7	 5	 1	 left	 LineStimuli//2.8/stimNo88r15c3v2.8.jpg	 l	 2.033	 GoodTrial	 allStim	 si
8	 5	 1	 right	 LineStimuli//2.3/stimNo110r15c19v2.3.jpg	 l	 3.246	 GoodTrial	 allStim	 si
9	 5	 1	 left	 LineStimuli//1.8/stimNo89r11c6v1.8.jpg	 r	 2.440	 GoodTrial	 allStim	 si
10	 5	 0	 x	 LineStimuli//1.5/stimNo150r0c0v1.5.jpg	 r	 6.849	 GoodTrial	 allStim	 si
11	 5	 1	 left	 LineStimuli//1.5/stimNo94r10c6v1.5.jpg	 r	 5.355	 GoodTrial	 allStim	 si
12	 5	 0	 x	 LineStimuli//1.8/stimNo139r0c0v1.8.jpg	 r	 6.735	 GoodTrial	 allStim	 si
13	 5	 0	 x	 LineStimuli//2.3/stimNo157r0c0v2.3.jpg	 r	 6.774	 GoodTrial	 allStim	 si
14	 5	 0	 x	 LineStimuli//2.8/stimNo125r0c0v2.8.jpg	 r	 2.920	 GoodTrial	 allStim	 si
15	 5	 0	 x	 LineStimuli//3.3/stimNo121r0c0v3.3.jpg	 r	 2.601	 GoodTrial	 allStim	 si
16	 5	 0	 x	 LineStimuli//3.8/stimNo154r0c0v3.8.jpg	 r	 2.347	 GoodTrial	 allStim	 si
17	 5	 1	 right	 LineStimuli//4.3/stimNo119r12c17v4.3.jpg	 l	 2.154	 GoodTrial	 allStim	 si
18	 5	 1	 right	 LineStimuli//4.3/stimNo96r4c19v4.3.jpg	 l	 1.977	 GoodTrial	 allStim	 si
19	 5	 0	 x	 LineStimuli//3.8/stimNo142r0c0v3.8.jpg	 r	 2.683	 GoodTrial	 allStim	 si
20	 5	 1	 right	 LineStimuli//3.3/stimNo112r5c15v3.3.jpg	 l	 1.921	 GoodTrial	 allStim	 si
21	 5	 0	 x	 LineStimuli//2.8/stimNo136r0c0v2.8.jpg	 r	 3.121	 GoodTrial	 allStim	 si
22	 5	 1	 left	 LineStimuli//2.3/stimNo96r3c3v2.3.jpg	 l	 2.691	 GoodTrial	 allStim	 si
23	 5	 1	 left	 LineStimuli//1.8/stimNo96r13c2v1.8.jpg	 l	 4.005	 GoodTrial	 allStim	 si
24	 5	 0	 x	 LineStimuli//1.5/stimNo127r0c0v1.5.jpg	 r	 10.572	 GoodTrial	 allStim	 si
25	 5	 1	 left	 LineStimuli//1.5/stimNo83r12c7v1.5.jpg	 l	 3.084	 GoodTrial	 allStim	 si
26	 5	 0	 x	 LineStimuli//1.8/stimNo121r0c0v1.8.jpg	 r	 8.454	 GoodTrial	 allStim	 si
27	 5	 0	 x	 LineStimuli//2.3/stimNo145r0c0v2.3.jpg	 r	 8.186	 GoodTrial	 allStim	 si
28	 5	 0	 x	 LineStimuli//2.8/stimNo135r0c0v2.8.jpg	 r	 2.468	 GoodTrial	 allStim	 si
29	 5	 1	 right	 LineStimuli//3.3/stimNo87r15c13v3.3.jpg	 l	 2.936	 GoodTrial	 allStim	 si
30	 5	 1	 right	 LineStimuli//3.8/stimNo90r8c17v3.8.jpg	 l	 1.620	 GoodTrial	 allStim	 si
31	 5	 0	 x	 LineStimuli//4.3/stimNo142r0c0v4.3.jpg	 r	 3.547	 GoodTrial	 allStim	 si
32	 5	 1	 right	 LineStimuli//4.3/stimNo114r10c15v4.3.jpg	 l	 2.528	 GoodTrial	 allStim	 si
33	 5	 0	 x	 LineStimuli//3.8/stimNo153r0c0v3.8.jpg	 r	 4.116	 GoodTrial	 allStim	 si
34	 5	 0	 x	 LineStimuli//3.3/stimNo132r0c0v3.3.jpg	 r	 10.785	 GoodTrial	 allStim	 si
35	 5	 0	 x	 LineStimuli//2.8/stimNo136r0c0v2.8.jpg	 r	 6.221	 GoodTrial	 allStim	 si
36	 5	 0	 x	 LineStimuli//2.3/stimNo129r0c0v2.3.jpg	 r	 4.088	 GoodTrial	 allStim	 si
37	 5	 1	 left	 LineStimuli//1.8/stimNo113r6c7v1.8.jpg	 l	 2.128	 GoodTrial	 allStim	 si
38	 5	 0	 x	 LineStimuli//1.5/stimNo144r0c0v1.5.jpg	 r	 12.920	 GoodTrial	 allStim	 si
39	 5	 0	 x	 LineStimuli//1.5/stimNo126r0c0v1.5.jpg	 r	 13.530	 GoodTrial	 allStim	 si
40	 5	 0	 x	 LineStimuli//1.8/stimNo156r0c0v1.8.jpg	 r	 9.909	 GoodTrial	 allStim	 si
41	 5	 0	 x	 LineStimuli//2.3/stimNo129r0c0v2.3.jpg	 r	 3.689	 GoodTrial	 allStim	 si
42	 5	 0	 x	 LineStimuli//2.8/stimNo155r0c0v2.8.jpg	 r	 2.711	 GoodTrial	 allStim	 si
43	 5	 1	 left	 LineStimuli//3.3/stimNo115r3c4v3.3.jpg	 l	 2.012	 GoodTrial	 allStim	 si
44	 5	 1	 left	 LineStimuli//3.8/stimNo105r2c6v3.8.jpg	 l	 1.587	 GoodTrial	 allStim	 si
45	 5	 1	 left	 LineStimuli//4.3/stimNo103r10c4v4.3.jpg	 l	 1.764	 GoodTrial	 allStim	 si
46	 5	 0	 x	 LineStimuli//4.3/stimNo146r0c0v4.3.jpg	 r	 4.802	 GoodTrial	 allStim	 si
47	 5	 1	 left	 LineStimuli//3.8/stimNo113r14c9v3.8.jpg	 l	 2.737	 GoodTrial	 allStim	 si
48	 5	 0	 x	 LineStimuli//3.3/stimNo141r0c0v3.3.jpg	 r	 5.592	 GoodTrial	 allStim	 si
49	 5	 0	 x	 LineStimuli//2.8/stimNo130r0c0v2.8.jpg	 r	 8.615	 GoodTrial	 allStim	 si
50	 5	 0	 x	 LineStimuli//2.3/stimNo126r0c0v2.3.jpg	 r	 1.786	 GoodTrial	 allStim	 si
1	 6	 1	 left	 LineStimuli//3.3/stimNo94r14c9v3.3.jpg	 l	 2.389	 GoodTrial	 allStim	 si
2	 6	 0	 x	 LineStimuli//3.8/stimNo159r0c0v3.8.jpg	 r	 5.161	 GoodTrial	 allStim	 si
3	 6	 1	 left	 LineStimuli//4.3/stimNo101r5c5v4.3.jpg	 l	 1.768	 GoodTrial	 allStim	 si
4	 6	 0	 x	 LineStimuli//4.3/stimNo151r0c0v4.3.jpg	 l	 4.664	 GoodTrial	 allStim	 si
5	 6	 0	 x	 LineStimuli//3.8/stimNo144r0c0v3.8.jpg	 r	 4.113	 GoodTrial	 allStim	 si
6	 6	 0	 x	 LineStimuli//3.3/stimNo123r0c0v3.3.jpg	 r	 1.985	 GoodTrial	 allStim	 si
7	 6	 1	 left	 LineStimuli//2.8/stimNo113r9c5v2.8.jpg	 r	 4.113	 GoodTrial	 allStim	 si
8	 6	 0	 x	 LineStimuli//2.3/stimNo152r0c0v2.3.jpg	 r	 3.313	 GoodTrial	 allStim	 si
9	 6	 0	 x	 LineStimuli//1.8/stimNo140r0c0v1.8.jpg	 r	 6.661	 GoodTrial	 allStim	 si
10	 6	 0	 x	 LineStimuli//1.5/stimNo127r0c0v1.5.jpg	 r	 13.851	 GoodTrial	 allStim	 si
11	 6	 0	 x	 LineStimuli//1.5/stimNo145r0c0v1.5.jpg	 r	 16.411	 GoodTrial	 allStim	 si
12	 6	 1	 left	 LineStimuli//1.8/stimNo98r15c5v1.8.jpg	 l	 2.786	 GoodTrial	 allStim	 si
13	 6	 0	 x	 LineStimuli//2.3/stimNo157r0c0v2.3.jpg	 r	 5.866	 GoodTrial	 allStim	 si
14	 6	 0	 x	 LineStimuli//2.8/stimNo135r0c0v2.8.jpg	 r	 4.059	 GoodTrial	 allStim	 si
15	 6	 1	 left	 LineStimuli//3.3/stimNo111r15c7v3.3.jpg	 r	 1.700	 GoodTrial	 allStim	 si
16	 6	 0	 x	 LineStimuli//3.8/stimNo138r0c0v3.8.jpg	 r	 2.227	 GoodTrial	 allStim	 si
17	 6	 1	 left	 LineStimuli//4.3/stimNo105r14c6v4.3.jpg	 l	 1.632	 GoodTrial	 allStim	 si
18	 6	 0	 x	 LineStimuli//4.3/stimNo153r0c0v4.3.jpg	 r	 5.080	 GoodTrial	 allStim	 si
19	 6	 0	 x	 LineStimuli//3.8/stimNo160r0c0v3.8.jpg	 r	 1.761	 GoodTrial	 allStim	 si
20	 6	 1	 left	 LineStimuli//3.3/stimNo85r6c4v3.3.jpg	 l	 1.689	 GoodTrial	 allStim	 si
21	 6	 1	 left	 LineStimuli//2.8/stimNo87r11c8v2.8.jpg	 l	 2.093	 GoodTrial	 allStim	 si
22	 6	 1	 right	 LineStimuli//2.3/stimNo110r15c19v2.3.jpg	 l	 2.176	 GoodTrial	 allStim	 si
23	 6	 1	 left	 LineStimuli//1.8/stimNo120r14c9v1.8.jpg	 l	 3.976	 GoodTrial	 allStim	 si
24	 6	 1	 right	 LineStimuli//1.5/stimNo81r6c17v1.5.jpg	 l	 1.984	 GoodTrial	 allStim	 si
25	 6	 0	 x	 LineStimuli//1.5/stimNo154r0c0v1.5.jpg	 r	 10.415	 GoodTrial	 allStim	 si
26	 6	 1	 right	 LineStimuli//1.8/stimNo119r3c21v1.8.jpg	 l	 7.120	 GoodTrial	 allStim	 si
27	 6	 0	 x	 LineStimuli//2.3/stimNo140r0c0v2.3.jpg	 r	 7.181	 GoodTrial	 allStim	 si
28	 6	 1	 left	 LineStimuli//2.8/stimNo98r15c2v2.8.jpg	 l	 2.108	 GoodTrial	 allStim	 si
29	 6	 0	 x	 LineStimuli//3.3/stimNo133r0c0v3.3.jpg	 r	 3.864	 GoodTrial	 allStim	 si
30	 6	 1	 left	 LineStimuli//3.8/stimNo97r15c9v3.8.jpg	 l	 3.314	 GoodTrial	 allStim	 si
31	 6	 1	 right	 LineStimuli//4.3/stimNo94r12c13v4.3.jpg	 l	 2.248	 GoodTrial	 allStim	 si
32	 6	 0	 x	 LineStimuli//4.3/stimNo142r0c0v4.3.jpg	 r	 2.440	 GoodTrial	 allStim	 si
33	 6	 0	 x	 LineStimuli//3.8/stimNo142r0c0v3.8.jpg	 r	 2.828	 GoodTrial	 allStim	 si
34	 6	 0	 x	 LineStimuli//3.3/stimNo149r0c0v3.3.jpg	 r	 1.576	 GoodTrial	 allStim	 si
35	 6	 1	 right	 LineStimuli//2.8/stimNo99r9c18v2.8.jpg	 l	 1.950	 GoodTrial	 allStim	 si
36	 6	 1	 right	 LineStimuli//2.3/stimNo98r12c21v2.3.jpg	 l	 1.840	 GoodTrial	 allStim	 si
37	 6	 0	 x	 LineStimuli//1.8/stimNo135r0c0v1.8.jpg	 r	 3.974	 GoodTrial	 allStim	 si
38	 6	 1	 left	 LineStimuli//1.5/stimNo114r4c4v1.5.jpg	 r	 7.187	 GoodTrial	 allStim	 si
39	 6	 0	 x	 LineStimuli//1.5/stimNo160r0c0v1.5.jpg	 r	 16.250	 GoodTrial	 allStim	 si
40	 6	 1	 left	 LineStimuli//1.8/stimNo87r14c2v1.8.jpg	 r	 7.120	 GoodTrial	 allStim	 si
41	 6	 0	 x	 LineStimuli//2.3/stimNo155r0c0v2.3.jpg	 r	 6.946	 GoodTrial	 allStim	 si
42	 6	 1	 right	 LineStimuli//2.8/stimNo99r9c18v2.8.jpg	 l	 1.933	 GoodTrial	 allStim	 si
43	 6	 0	 x	 LineStimuli//3.3/stimNo137r0c0v3.3.jpg	 r	 2.219	 GoodTrial	 allStim	 si
44	 6	 1	 left	 LineStimuli//3.8/stimNo89r10c7v3.8.jpg	 l	 2.110	 GoodTrial	 allStim	 si
45	 6	 0	 x	 LineStimuli//4.3/stimNo152r0c0v4.3.jpg	 r	 2.513	 GoodTrial	 allStim	 si
46	 6	 1	 right	 LineStimuli//4.3/stimNo114r10c15v4.3.jpg	 l	 4.033	 GoodTrial	 allStim	 si
47	 6	 1	 right	 LineStimuli//3.8/stimNo101r12c17v3.8.jpg	 l	 4.329	 GoodTrial	 allStim	 si
48	 6	 1	 left	 LineStimuli//3.3/stimNo104r4c4v3.3.jpg	 l	 1.689	 GoodTrial	 allStim	 si
49	 6	 1	 right	 LineStimuli//2.8/stimNo109r6c18v2.8.jpg	 l	 4.049	 GoodTrial	 allStim	 si
50	 6	 1	 right	 LineStimuli//2.3/stimNo85r4c15v2.3.jpg	 l	 1.765	 GoodTrial	 allStim	 si
1	 7	 1	 right	 LineStimuli//3.3/stimNo118r3c16v3.3.jpg	 l	 1.689	 GoodTrial	 allStim	 si
2	 7	 0	 x	 LineStimuli//3.8/stimNo135r0c0v3.8.jpg	 r	 4.923	 GoodTrial	 allStim	 si
3	 7	 0	 x	 LineStimuli//4.3/stimNo160r0c0v4.3.jpg	 r	 1.803	 GoodTrial	 allStim	 si
4	 7	 1	 left	 LineStimuli//4.3/stimNo98r3c8v4.3.jpg	 l	 1.637	 GoodTrial	 allStim	 si
5	 7	 1	 left	 LineStimuli//3.8/stimNo98r2c9v3.8.jpg	 l	 1.665	 GoodTrial	 allStim	 si
6	 7	 0	 x	 LineStimuli//3.3/stimNo128r0c0v3.3.jpg	 r	 4.669	 GoodTrial	 allStim	 si
7	 7	 1	 right	 LineStimuli//2.8/stimNo90r13c21v2.8.jpg	 l	 1.697	 GoodTrial	 allStim	 si
8	 7	 0	 x	 LineStimuli//2.3/stimNo139r0c0v2.3.jpg	 r	 3.361	 GoodTrial	 allStim	 si
9	 7	 1	 right	 LineStimuli//1.8/stimNo114r8c13v1.8.jpg	 r	 5.353	 GoodTrial	 allStim	 si
10	 7	 0	 x	 LineStimuli//1.5/stimNo132r0c0v1.5.jpg	 r	 9.578	 GoodTrial	 allStim	 si
11	 7	 1	 left	 LineStimuli//1.5/stimNo116r7c7v1.5.jpg	 r	 9.757	 GoodTrial	 allStim	 si
12	 7	 0	 x	 LineStimuli//1.8/stimNo131r0c0v1.8.jpg	 r	 6.741	 GoodTrial	 allStim	 si
13	 7	 1	 left	 LineStimuli//2.3/stimNo119r3c2v2.3.jpg	 l	 2.029	 GoodTrial	 allStim	 si
14	 7	 1	 right	 LineStimuli//2.8/stimNo117r11c17v2.8.jpg	 l	 2.963	 GoodTrial	 allStim	 si
15	 7	 0	 x	 LineStimuli//3.3/stimNo134r0c0v3.3.jpg	 r	 4.186	 GoodTrial	 allStim	 si
16	 7	 0	 x	 LineStimuli//3.8/stimNo150r0c0v3.8.jpg	 r	 2.435	 GoodTrial	 allStim	 si
17	 7	 1	 right	 LineStimuli//4.3/stimNo97r6c21v4.3.jpg	 l	 1.960	 GoodTrial	 allStim	 si
18	 7	 0	 x	 LineStimuli//4.3/stimNo130r0c0v4.3.jpg	 r	 2.273	 GoodTrial	 allStim	 si
19	 7	 1	 left	 LineStimuli//3.8/stimNo118r4c8v3.8.jpg	 l	 1.883	 GoodTrial	 allStim	 si
20	 7	 0	 x	 LineStimuli//3.3/stimNo144r0c0v3.3.jpg	 r	 2.720	 GoodTrial	 allStim	 si
21	 7	 0	 x	 LineStimuli//2.8/stimNo151r0c0v2.8.jpg	 r	 1.982	 GoodTrial	 allStim	 si
22	 7	 1	 right	 LineStimuli//2.3/stimNo87r13c19v2.3.jpg	 l	 1.925	 GoodTrial	 allStim	 si
23	 7	 0	 x	 LineStimuli//1.8/stimNo153r0c0v1.8.jpg	 r	 3.728	 GoodTrial	 allStim	 si
24	 7	 0	 x	 LineStimuli//1.5/stimNo135r0c0v1.5.jpg	 l	 3.464	 GoodTrial	 allStim	 si
25	 7	 1	 right	 LineStimuli//1.5/stimNo118r9c20v1.5.jpg	 r	 4.626	 GoodTrial	 allStim	 si
26	 7	 1	 left	 LineStimuli//1.8/stimNo107r5c4v1.8.jpg	 l	 4.036	 GoodTrial	 allStim	 si
27	 7	 0	 x	 LineStimuli//2.3/stimNo150r0c0v2.3.jpg	 r	 4.504	 GoodTrial	 allStim	 si
28	 7	 0	 x	 LineStimuli//2.8/stimNo155r0c0v2.8.jpg	 r	 3.298	 GoodTrial	 allStim	 si
29	 7	 0	 x	 LineStimuli//3.3/stimNo128r0c0v3.3.jpg	 r	 3.693	 GoodTrial	 allStim	 si
30	 7	 0	 x	 LineStimuli//3.8/stimNo145r0c0v3.8.jpg	 r	 2.000	 GoodTrial	 allStim	 si
31	 7	 0	 x	 LineStimuli//4.3/stimNo134r0c0v4.3.jpg	 r	 2.106	 GoodTrial	 allStim	 si
32	 7	 1	 right	 LineStimuli//4.3/stimNo89r3c17v4.3.jpg	 r	 2.292	 GoodTrial	 allStim	 si
33	 7	 0	 x	 LineStimuli//3.8/stimNo125r0c0v3.8.jpg	 r	 3.388	 GoodTrial	 allStim	 si
34	 7	 1	 left	 LineStimuli//3.3/stimNo90r2c9v3.3.jpg	 l	 1.932	 GoodTrial	 allStim	 si
35	 7	 0	 x	 LineStimuli//2.8/stimNo152r0c0v2.8.jpg	 r	 2.414	 GoodTrial	 allStim	 si
36	 7	 1	 left	 LineStimuli//2.3/stimNo104r2c4v2.3.jpg	 l	 1.736	 GoodTrial	 allStim	 si
37	 7	 0	 x	 LineStimuli//1.8/stimNo154r0c0v1.8.jpg	 r	 2.438	 GoodTrial	 allStim	 si
38	 7	 1	 right	 LineStimuli//1.5/stimNo95r6c14v1.5.jpg	 r	 4.688	 GoodTrial	 allStim	 si
39	 7	 0	 x	 LineStimuli//1.5/stimNo124r0c0v1.5.jpg	 r	 6.950	 GoodTrial	 allStim	 si
40	 7	 0	 x	 LineStimuli//1.8/stimNo136r0c0v1.8.jpg	 r	 5.585	 GoodTrial	 allStim	 si
41	 7	 0	 x	 LineStimuli//2.3/stimNo130r0c0v2.3.jpg	 r	 7.643	 GoodTrial	 allStim	 si
42	 7	 0	 x	 LineStimuli//2.8/stimNo130r0c0v2.8.jpg	 r	 2.927	 GoodTrial	 allStim	 si
43	 7	 1	 right	 LineStimuli//3.3/stimNo97r6c13v3.3.jpg	 l	 2.439	 GoodTrial	 allStim	 si
44	 7	 0	 x	 LineStimuli//3.8/stimNo150r0c0v3.8.jpg	 r	 2.921	 GoodTrial	 allStim	 si
45	 7	 0	 x	 LineStimuli//4.3/stimNo153r0c0v4.3.jpg	 r	 1.668	 GoodTrial	 allStim	 si
46	 7	 1	 left	 LineStimuli//4.3/stimNo88r10c3v4.3.jpg	 l	 1.791	 GoodTrial	 allStim	 si
47	 7	 0	 x	 LineStimuli//3.8/stimNo158r0c0v3.8.jpg	 r	 2.395	 GoodTrial	 allStim	 si
48	 7	 0	 x	 LineStimuli//3.3/stimNo128r0c0v3.3.jpg	 r	 2.193	 GoodTrial	 allStim	 si
49	 7	 0	 x	 LineStimuli//2.8/stimNo147r0c0v2.8.jpg	 r	 2.147	 GoodTrial	 allStim	 si
50	 7	 1	 left	 LineStimuli//2.3/stimNo104r2c4v2.3.jpg	 r	 1.265	 GoodTrial	 allStim	 si
