Trial	Block	Target_pr	Target_side	Name	Key	RT	Message	Block_Type	Condition
1	 1	 1	 right	 LineStimuli//3.3/stimNo88r9c14v3.3.jpg	 l	 2.207	 GoodTrial	 allStim	 si
2	 1	 1	 right	 LineStimuli//3.8/stimNo92r6c21v3.8.jpg	 l	 1.633	 GoodTrial	 allStim	 si
3	 1	 0	 x	 LineStimuli//4.3/stimNo140r0c0v4.3.jpg	 r	 3.739	 GoodTrial	 allStim	 si
4	 1	 1	 right	 LineStimuli//4.3/stimNo120r8c18v4.3.jpg	 l	 1.646	 GoodTrial	 allStim	 si
5	 1	 0	 x	 LineStimuli//3.8/stimNo148r0c0v3.8.jpg	 r	 3.992	 GoodTrial	 allStim	 si
6	 1	 1	 right	 LineStimuli//3.3/stimNo96r8c18v3.3.jpg	 l	 1.652	 GoodTrial	 allStim	 si
7	 1	 0	 x	 LineStimuli//2.8/stimNo123r0c0v2.8.jpg	 r	 4.611	 GoodTrial	 allStim	 si
8	 1	 0	 x	 LineStimuli//2.3/stimNo152r0c0v2.3.jpg	 r	 5.031	 GoodTrial	 allStim	 si
9	 1	 0	 x	 LineStimuli//1.8/stimNo160r0c0v1.8.jpg	 r	 6.659	 GoodTrial	 allStim	 si
10	 1	 1	 left	 LineStimuli//1.3/stimNo114r4c4v1.3.jpg	 r	 4.920	 GoodTrial	 allStim	 si
11	 1	 1	 left	 LineStimuli//1.3/stimNo109r8c6v1.3.jpg	 r	 26.918	 GoodTrial	 allStim	 si
12	 1	 0	 x	 LineStimuli//1.8/stimNo150r0c0v1.8.jpg	 r	 5.295	 GoodTrial	 allStim	 si
13	 1	 1	 right	 LineStimuli//2.3/stimNo87r13c19v2.3.jpg	 l	 2.308	 GoodTrial	 allStim	 si
14	 1	 0	 x	 LineStimuli//2.8/stimNo131r0c0v2.8.jpg	 r	 3.834	 GoodTrial	 allStim	 si
1	 2	 1	 left	 LineStimuli//3.3/stimNo83r8c3v3.3.jpg	 l	 1.835	 GoodTrial	 allStim	 si
2	 2	 0	 x	 LineStimuli//3.8/stimNo137r0c0v3.8.jpg	 r	 3.810	 GoodTrial	 allStim	 si
3	 2	 1	 right	 LineStimuli//4.3/stimNo97r6c21v4.3.jpg	 l	 1.733	 GoodTrial	 allStim	 si
4	 2	 0	 x	 LineStimuli//4.3/stimNo131r0c0v4.3.jpg	 r	 2.940	 GoodTrial	 allStim	 si
5	 2	 1	 right	 LineStimuli//3.8/stimNo87r6c13v3.8.jpg	 l	 1.622	 GoodTrial	 allStim	 si
6	 2	 1	 right	 LineStimuli//3.3/stimNo102r13c13v3.3.jpg	 l	 1.789	 GoodTrial	 allStim	 si
7	 2	 0	 x	 LineStimuli//2.8/stimNo124r0c0v2.8.jpg	 r	 4.115	 GoodTrial	 allStim	 si
8	 2	 0	 x	 LineStimuli//2.3/stimNo159r0c0v2.3.jpg	 r	 3.747	 GoodTrial	 allStim	 si
9	 2	 1	 left	 LineStimuli//1.8/stimNo105r6c5v1.8.jpg	 l	 1.888	 GoodTrial	 allStim	 si
10	 2	 1	 left	 LineStimuli//1.3/stimNo106r3c7v1.3.jpg	 r	 11.944	 GoodTrial	 allStim	 si
11	 2	 0	 x	 LineStimuli//1.3/stimNo146r0c0v1.3.jpg	 r	 17.085	 GoodTrial	 allStim	 si
12	 2	 0	 x	 LineStimuli//1.8/stimNo139r0c0v1.8.jpg	 r	 11.671	 GoodTrial	 allStim	 si
13	 2	 1	 right	 LineStimuli//2.3/stimNo102r6c18v2.3.jpg	 l	 1.845	 GoodTrial	 allStim	 si
14	 2	 0	 x	 LineStimuli//2.8/stimNo139r0c0v2.8.jpg	 r	 4.272	 GoodTrial	 allStim	 si
1	 3	 1	 left	 LineStimuli//3.3/stimNo90r2c9v3.3.jpg	 l	 1.844	 GoodTrial	 allStim	 si
2	 3	 1	 right	 LineStimuli//3.8/stimNo81r3c21v3.8.jpg	 l	 1.688	 GoodTrial	 allStim	 si
3	 3	 0	 x	 LineStimuli//4.3/stimNo143r0c0v4.3.jpg	 r	 2.565	 GoodTrial	 allStim	 si
4	 3	 0	 x	 LineStimuli//4.3/stimNo138r0c0v4.3.jpg	 r	 2.270	 GoodTrial	 allStim	 si
5	 3	 1	 left	 LineStimuli//3.8/stimNo118r4c8v3.8.jpg	 l	 1.818	 GoodTrial	 allStim	 si
6	 3	 0	 x	 LineStimuli//3.3/stimNo137r0c0v3.3.jpg	 r	 2.094	 GoodTrial	 allStim	 si
7	 3	 1	 left	 LineStimuli//2.8/stimNo108r13c6v2.8.jpg	 l	 1.690	 GoodTrial	 allStim	 si
8	 3	 1	 right	 LineStimuli//2.3/stimNo102r6c18v2.3.jpg	 l	 3.364	 GoodTrial	 allStim	 si
9	 3	 0	 x	 LineStimuli//1.8/stimNo143r0c0v1.8.jpg	 r	 3.863	 GoodTrial	 allStim	 si
10	 3	 0	 x	 LineStimuli//1.3/stimNo147r0c0v1.3.jpg	 r	 13.064	 GoodTrial	 allStim	 si
11	 3	 1	 left	 LineStimuli//1.3/stimNo91r9c3v1.3.jpg	 l	 2.222	 GoodTrial	 allStim	 si
12	 3	 0	 x	 LineStimuli//1.8/stimNo158r0c0v1.8.jpg	 r	 6.912	 GoodTrial	 allStim	 si
13	 3	 1	 right	 LineStimuli//2.3/stimNo107r11c15v2.3.jpg	 l	 1.637	 GoodTrial	 allStim	 si
14	 3	 1	 left	 LineStimuli//2.8/stimNo89r12c4v2.8.jpg	 l	 1.793	 GoodTrial	 allStim	 si
1	 4	 0	 x	 LineStimuli//3.3/stimNo137r0c0v3.3.jpg	 r	 4.492	 GoodTrial	 allStim	 si
2	 4	 1	 right	 LineStimuli//3.8/stimNo96r2c13v3.8.jpg	 l	 1.735	 GoodTrial	 allStim	 si
3	 4	 1	 left	 LineStimuli//4.3/stimNo104r15c2v4.3.jpg	 l	 1.895	 GoodTrial	 allStim	 si
4	 4	 1	 right	 LineStimuli//4.3/stimNo84r15c20v4.3.jpg	 l	 1.612	 GoodTrial	 allStim	 si
5	 4	 0	 x	 LineStimuli//3.8/stimNo144r0c0v3.8.jpg	 r	 4.499	 GoodTrial	 allStim	 si
6	 4	 1	 left	 LineStimuli//3.3/stimNo85r6c4v3.3.jpg	 l	 1.582	 GoodTrial	 allStim	 si
7	 4	 1	 right	 LineStimuli//2.8/stimNo114r8c19v2.8.jpg	 l	 1.742	 GoodTrial	 allStim	 si
8	 4	 1	 right	 LineStimuli//2.3/stimNo89r8c21v2.3.jpg	 l	 1.649	 GoodTrial	 allStim	 si
9	 4	 1	 right	 LineStimuli//1.8/stimNo97r15c18v1.8.jpg	 l	 5.293	 GoodTrial	 allStim	 si
10	 4	 1	 right	 LineStimuli//1.3/stimNo115r14c18v1.3.jpg	 l	 2.339	 GoodTrial	 allStim	 si
11	 4	 0	 x	 LineStimuli//1.3/stimNo137r0c0v1.3.jpg	 r	 20.216	 GoodTrial	 allStim	 si
12	 4	 0	 x	 LineStimuli//1.8/stimNo131r0c0v1.8.jpg	 r	 3.877	 GoodTrial	 allStim	 si
13	 4	 1	 left	 LineStimuli//2.3/stimNo112r3c2v2.3.jpg	 l	 1.772	 GoodTrial	 allStim	 si
14	 4	 1	 right	 LineStimuli//2.8/stimNo118r5c16v2.8.jpg	 l	 1.650	 GoodTrial	 allStim	 si
1	 5	 0	 x	 LineStimuli//3.3/stimNo127r0c0v3.3.jpg	 r	 4.200	 GoodTrial	 allStim	 si
2	 5	 1	 left	 LineStimuli//3.8/stimNo119r9c8v3.8.jpg	 l	 1.657	 GoodTrial	 allStim	 si
3	 5	 0	 x	 LineStimuli//4.3/stimNo148r0c0v4.3.jpg	 r	 3.629	 GoodTrial	 allStim	 si
4	 5	 0	 x	 LineStimuli//4.3/stimNo154r0c0v4.3.jpg	 r	 3.924	 GoodTrial	 allStim	 si
5	 5	 0	 x	 LineStimuli//3.8/stimNo156r0c0v3.8.jpg	 r	 3.529	 GoodTrial	 allStim	 si
6	 5	 1	 left	 LineStimuli//3.3/stimNo92r10c7v3.3.jpg	 l	 1.735	 GoodTrial	 allStim	 si
7	 5	 0	 x	 LineStimuli//2.8/stimNo132r0c0v2.8.jpg	 r	 2.851	 GoodTrial	 allStim	 si
8	 5	 1	 right	 LineStimuli//2.3/stimNo101r8c14v2.3.jpg	 l	 1.735	 GoodTrial	 allStim	 si
9	 5	 1	 right	 LineStimuli//1.8/stimNo100r9c13v1.8.jpg	 l	 1.880	 GoodTrial	 allStim	 si
10	 5	 0	 x	 LineStimuli//1.3/stimNo133r0c0v1.3.jpg	 r	 7.418	 GoodTrial	 allStim	 si
11	 5	 0	 x	 LineStimuli//1.3/stimNo124r0c0v1.3.jpg	 r	 12.947	 GoodTrial	 allStim	 si
12	 5	 0	 x	 LineStimuli//1.8/stimNo131r0c0v1.8.jpg	 r	 5.358	 GoodTrial	 allStim	 si
13	 5	 0	 x	 LineStimuli//2.3/stimNo147r0c0v2.3.jpg	 r	 9.080	 GoodTrial	 allStim	 si
14	 5	 1	 right	 LineStimuli//2.8/stimNo117r11c17v2.8.jpg	 l	 1.685	 GoodTrial	 allStim	 si
1	 6	 0	 x	 LineStimuli//3.3/stimNo135r0c0v3.3.jpg	 r	 4.666	 GoodTrial	 allStim	 si
2	 6	 0	 x	 LineStimuli//3.8/stimNo122r0c0v3.8.jpg	 r	 3.595	 GoodTrial	 allStim	 si
3	 6	 1	 left	 LineStimuli//4.3/stimNo93r9c9v4.3.jpg	 l	 1.642	 GoodTrial	 allStim	 si
4	 6	 1	 left	 LineStimuli//4.3/stimNo87r3c5v4.3.jpg	 l	 1.684	 GoodTrial	 allStim	 si
5	 6	 1	 right	 LineStimuli//3.8/stimNo81r3c21v3.8.jpg	 l	 1.619	 GoodTrial	 allStim	 si
6	 6	 1	 left	 LineStimuli//3.3/stimNo110r4c3v3.3.jpg	 l	 1.614	 GoodTrial	 allStim	 si
7	 6	 0	 x	 LineStimuli//2.8/stimNo142r0c0v2.8.jpg	 r	 3.606	 GoodTrial	 allStim	 si
8	 6	 1	 left	 LineStimuli//2.3/stimNo112r3c2v2.3.jpg	 l	 1.835	 GoodTrial	 allStim	 si
9	 6	 1	 right	 LineStimuli//1.8/stimNo112r6c15v1.8.jpg	 l	 1.737	 GoodTrial	 allStim	 si
10	 6	 0	 x	 LineStimuli//1.3/stimNo123r0c0v1.3.jpg	 r	 2.775	 GoodTrial	 allStim	 si
11	 6	 1	 left	 LineStimuli//1.3/stimNo87r12c5v1.3.jpg	 r	 4.123	 GoodTrial	 allStim	 si
12	 6	 1	 right	 LineStimuli//1.8/stimNo84r11c21v1.8.jpg	 l	 2.320	 GoodTrial	 allStim	 si
13	 6	 0	 x	 LineStimuli//2.3/stimNo140r0c0v2.3.jpg	 r	 4.680	 GoodTrial	 allStim	 si
14	 6	 1	 left	 LineStimuli//2.8/stimNo107r5c6v2.8.jpg	 l	 1.660	 GoodTrial	 allStim	 si
1	 7	 1	 right	 LineStimuli//3.3/stimNo120r8c14v3.3.jpg	 l	 1.546	 GoodTrial	 allStim	 si
2	 7	 0	 x	 LineStimuli//3.8/stimNo139r0c0v3.8.jpg	 r	 2.086	 GoodTrial	 allStim	 si
3	 7	 0	 x	 LineStimuli//4.3/stimNo135r0c0v4.3.jpg	 r	 2.818	 GoodTrial	 allStim	 si
4	 7	 1	 left	 LineStimuli//4.3/stimNo88r10c3v4.3.jpg	 l	 1.565	 GoodTrial	 allStim	 si
5	 7	 0	 x	 LineStimuli//3.8/stimNo148r0c0v3.8.jpg	 r	 2.207	 GoodTrial	 allStim	 si
6	 7	 1	 right	 LineStimuli//3.3/stimNo112r5c15v3.3.jpg	 l	 1.649	 GoodTrial	 allStim	 si
7	 7	 0	 x	 LineStimuli//2.8/stimNo160r0c0v2.8.jpg	 r	 2.436	 GoodTrial	 allStim	 si
8	 7	 0	 x	 LineStimuli//2.3/stimNo159r0c0v2.3.jpg	 r	 2.845	 GoodTrial	 allStim	 si
9	 7	 0	 x	 LineStimuli//1.8/stimNo156r0c0v1.8.jpg	 r	 8.859	 GoodTrial	 allStim	 si
10	 7	 1	 left	 LineStimuli//1.3/stimNo112r9c5v1.3.jpg	 l	 3.152	 GoodTrial	 allStim	 si
11	 7	 0	 x	 LineStimuli//1.3/stimNo124r0c0v1.3.jpg	 l	 5.723	 GoodTrial	 allStim	 si
12	 7	 1	 right	 LineStimuli//1.8/stimNo117r10c16v1.8.jpg	 l	 1.903	 GoodTrial	 allStim	 si
13	 7	 1	 right	 LineStimuli//2.3/stimNo118r4c17v2.3.jpg	 l	 1.796	 GoodTrial	 allStim	 si
14	 7	 0	 x	 LineStimuli//2.8/stimNo123r0c0v2.8.jpg	 r	 4.625	 GoodTrial	 allStim	 si
