Trial	Block	Target_pr	Target_side	Name	Key	RT	Message	Block_Type	Condition
1	 1	 1	 right	 LineStimuli//3.3/stimNo113r13c15v3.3.jpg	 l	 1.981	 GoodTrial	 allStim	 si
2	 1	 1	 right	 LineStimuli//3.8/stimNo81r3c21v3.8.jpg	 l	 1.765	 GoodTrial	 allStim	 si
3	 1	 0	 x	 LineStimuli//4.3/stimNo149r0c0v4.3.jpg	 r	 2.015	 GoodTrial	 allStim	 si
4	 1	 1	 left	 LineStimuli//4.3/stimNo104r15c2v4.3.jpg	 l	 1.669	 GoodTrial	 allStim	 si
5	 1	 1	 right	 LineStimuli//3.8/stimNo81r3c21v3.8.jpg	 l	 1.633	 GoodTrial	 allStim	 si
6	 1	 0	 x	 LineStimuli//3.3/stimNo151r0c0v3.3.jpg	 r	 1.728	 GoodTrial	 allStim	 si
7	 1	 0	 x	 LineStimuli//2.8/stimNo128r0c0v2.8.jpg	 r	 2.087	 GoodTrial	 allStim	 si
8	 1	 1	 left	 LineStimuli//2.3/stimNo97r3c3v2.3.jpg	 l	 1.628	 GoodTrial	 allStim	 si
9	 1	 1	 right	 LineStimuli//1.8/stimNo117r10c16v1.8.jpg	 l	 1.572	 GoodTrial	 allStim	 si
10	 1	 1	 right	 LineStimuli//1.5/stimNo93r14c18v1.5.jpg	 l	 2.632	 GoodTrial	 allStim	 si
11	 1	 0	 x	 LineStimuli//1.5/stimNo153r0c0v1.5.jpg	 l	 6.321	 GoodTrial	 allStim	 si
12	 1	 1	 right	 LineStimuli//1.8/stimNo93r3c17v1.8.jpg	 l	 1.958	 GoodTrial	 allStim	 si
13	 1	 0	 x	 LineStimuli//2.3/stimNo144r0c0v2.3.jpg	 r	 2.546	 GoodTrial	 allStim	 si
14	 1	 0	 x	 LineStimuli//2.8/stimNo140r0c0v2.8.jpg	 r	 2.414	 GoodTrial	 allStim	 si
15	 1	 1	 right	 LineStimuli//3.3/stimNo116r10c14v3.3.jpg	 l	 1.585	 GoodTrial	 allStim	 si
16	 1	 0	 x	 LineStimuli//3.8/stimNo123r0c0v3.8.jpg	 r	 2.252	 GoodTrial	 allStim	 si
17	 1	 1	 left	 LineStimuli//4.3/stimNo106r8c2v4.3.jpg	 l	 1.534	 GoodTrial	 allStim	 si
18	 1	 0	 x	 LineStimuli//4.3/stimNo123r0c0v4.3.jpg	 r	 1.565	 GoodTrial	 allStim	 si
19	 1	 0	 x	 LineStimuli//3.8/stimNo131r0c0v3.8.jpg	 r	 1.660	 GoodTrial	 allStim	 si
20	 1	 1	 left	 LineStimuli//3.3/stimNo110r4c3v3.3.jpg	 l	 1.509	 GoodTrial	 allStim	 si
21	 1	 1	 left	 LineStimuli//2.8/stimNo97r11c4v2.8.jpg	 l	 1.568	 GoodTrial	 allStim	 si
22	 1	 0	 x	 LineStimuli//2.3/stimNo141r0c0v2.3.jpg	 r	 3.786	 GoodTrial	 allStim	 si
23	 1	 1	 right	 LineStimuli//1.8/stimNo104r3c21v1.8.jpg	 l	 1.546	 GoodTrial	 allStim	 si
24	 1	 0	 x	 LineStimuli//1.5/stimNo137r0c0v1.5.jpg	 r	 8.625	 GoodTrial	 allStim	 si
25	 1	 1	 right	 LineStimuli//1.5/stimNo111r7c17v1.5.jpg	 l	 1.703	 GoodTrial	 allStim	 si
26	 1	 0	 x	 LineStimuli//1.8/stimNo149r0c0v1.8.jpg	 r	 5.311	 GoodTrial	 allStim	 si
27	 1	 1	 right	 LineStimuli//2.3/stimNo84r15c14v2.3.jpg	 l	 1.729	 GoodTrial	 allStim	 si
28	 1	 1	 right	 LineStimuli//2.8/stimNo111r9c15v2.8.jpg	 l	 1.548	 GoodTrial	 allStim	 si
29	 1	 1	 right	 LineStimuli//3.3/stimNo114r11c21v3.3.jpg	 l	 1.555	 GoodTrial	 allStim	 si
30	 1	 0	 x	 LineStimuli//3.8/stimNo123r0c0v3.8.jpg	 r	 1.759	 GoodTrial	 allStim	 si
31	 1	 0	 x	 LineStimuli//4.3/stimNo139r0c0v4.3.jpg	 r	 1.642	 GoodTrial	 allStim	 si
32	 1	 0	 x	 LineStimuli//4.3/stimNo132r0c0v4.3.jpg	 r	 1.624	 GoodTrial	 allStim	 si
33	 1	 1	 right	 LineStimuli//3.8/stimNo92r6c21v3.8.jpg	 l	 1.647	 GoodTrial	 allStim	 si
34	 1	 1	 left	 LineStimuli//3.3/stimNo119r15c7v3.3.jpg	 l	 1.583	 GoodTrial	 allStim	 si
35	 1	 1	 left	 LineStimuli//2.8/stimNo105r5c4v2.8.jpg	 l	 1.586	 GoodTrial	 allStim	 si
36	 1	 1	 right	 LineStimuli//2.3/stimNo111r11c21v2.3.jpg	 l	 1.498	 GoodTrial	 allStim	 si
37	 1	 0	 x	 LineStimuli//1.8/stimNo133r0c0v1.8.jpg	 r	 5.399	 GoodTrial	 allStim	 si
38	 1	 1	 right	 LineStimuli//1.5/stimNo81r6c17v1.5.jpg	 l	 1.855	 GoodTrial	 allStim	 si
39	 1	 1	 right	 LineStimuli//1.5/stimNo84r3c18v1.5.jpg	 l	 1.811	 GoodTrial	 allStim	 si
40	 1	 0	 x	 LineStimuli//1.8/stimNo139r0c0v1.8.jpg	 r	 4.909	 GoodTrial	 allStim	 si
41	 1	 1	 right	 LineStimuli//2.3/stimNo98r12c21v2.3.jpg	 l	 1.600	 GoodTrial	 allStim	 si
42	 1	 0	 x	 LineStimuli//2.8/stimNo129r0c0v2.8.jpg	 r	 2.039	 GoodTrial	 allStim	 si
43	 1	 0	 x	 LineStimuli//3.3/stimNo149r0c0v3.3.jpg	 r	 1.838	 GoodTrial	 allStim	 si
44	 1	 1	 right	 LineStimuli//3.8/stimNo114r10c14v3.8.jpg	 l	 1.492	 GoodTrial	 allStim	 si
45	 1	 0	 x	 LineStimuli//4.3/stimNo135r0c0v4.3.jpg	 r	 2.714	 GoodTrial	 allStim	 si
46	 1	 1	 right	 LineStimuli//4.3/stimNo99r14c18v4.3.jpg	 l	 1.549	 GoodTrial	 allStim	 si
47	 1	 0	 x	 LineStimuli//3.8/stimNo155r0c0v3.8.jpg	 r	 2.734	 GoodTrial	 allStim	 si
48	 1	 0	 x	 LineStimuli//3.3/stimNo143r0c0v3.3.jpg	 r	 3.778	 GoodTrial	 allStim	 si
49	 1	 0	 x	 LineStimuli//2.8/stimNo145r0c0v2.8.jpg	 r	 2.212	 GoodTrial	 allStim	 si
50	 1	 1	 left	 LineStimuli//2.3/stimNo96r3c3v2.3.jpg	 l	 1.580	 GoodTrial	 allStim	 si
1	 2	 0	 x	 LineStimuli//3.3/stimNo138r0c0v3.3.jpg	 r	 2.068	 GoodTrial	 allStim	 si
2	 2	 1	 left	 LineStimuli//3.8/stimNo116r7c3v3.8.jpg	 l	 1.634	 GoodTrial	 allStim	 si
3	 2	 1	 right	 LineStimuli//4.3/stimNo81r10c14v4.3.jpg	 l	 1.470	 GoodTrial	 allStim	 si
4	 2	 0	 x	 LineStimuli//4.3/stimNo144r0c0v4.3.jpg	 r	 1.878	 GoodTrial	 allStim	 si
5	 2	 1	 left	 LineStimuli//3.8/stimNo83r9c9v3.8.jpg	 l	 1.619	 GoodTrial	 allStim	 si
6	 2	 1	 right	 LineStimuli//3.3/stimNo107r2c17v3.3.jpg	 l	 1.544	 GoodTrial	 allStim	 si
7	 2	 0	 x	 LineStimuli//2.8/stimNo153r0c0v2.8.jpg	 r	 2.202	 GoodTrial	 allStim	 si
8	 2	 0	 x	 LineStimuli//2.3/stimNo154r0c0v2.3.jpg	 r	 1.737	 GoodTrial	 allStim	 si
9	 2	 1	 left	 LineStimuli//1.8/stimNo89r11c6v1.8.jpg	 l	 2.230	 GoodTrial	 allStim	 si
10	 2	 0	 x	 LineStimuli//1.5/stimNo148r0c0v1.5.jpg	 r	 5.757	 GoodTrial	 allStim	 si
11	 2	 0	 x	 LineStimuli//1.5/stimNo141r0c0v1.5.jpg	 r	 8.242	 GoodTrial	 allStim	 si
12	 2	 0	 x	 LineStimuli//1.8/stimNo141r0c0v1.8.jpg	 r	 2.637	 GoodTrial	 allStim	 si
13	 2	 1	 left	 LineStimuli//2.3/stimNo113r3c8v2.3.jpg	 l	 1.588	 GoodTrial	 allStim	 si
14	 2	 1	 left	 LineStimuli//2.8/stimNo88r15c3v2.8.jpg	 l	 1.666	 GoodTrial	 allStim	 si
15	 2	 0	 x	 LineStimuli//3.3/stimNo151r0c0v3.3.jpg	 r	 2.291	 GoodTrial	 allStim	 si
16	 2	 1	 left	 LineStimuli//3.8/stimNo89r10c7v3.8.jpg	 l	 1.449	 GoodTrial	 allStim	 si
17	 2	 0	 x	 LineStimuli//4.3/stimNo122r0c0v4.3.jpg	 r	 1.514	 GoodTrial	 allStim	 si
18	 2	 0	 x	 LineStimuli//4.3/stimNo132r0c0v4.3.jpg	 r	 1.604	 GoodTrial	 allStim	 si
19	 2	 0	 x	 LineStimuli//3.8/stimNo159r0c0v3.8.jpg	 r	 1.559	 GoodTrial	 allStim	 si
20	 2	 0	 x	 LineStimuli//3.3/stimNo157r0c0v3.3.jpg	 r	 1.555	 GoodTrial	 allStim	 si
21	 2	 0	 x	 LineStimuli//2.8/stimNo130r0c0v2.8.jpg	 r	 1.619	 GoodTrial	 allStim	 si
22	 2	 0	 x	 LineStimuli//2.3/stimNo132r0c0v2.3.jpg	 r	 1.701	 GoodTrial	 allStim	 si
23	 2	 1	 left	 LineStimuli//1.8/stimNo95r4c9v1.8.jpg	 l	 1.729	 GoodTrial	 allStim	 si
24	 2	 1	 right	 LineStimuli//1.5/stimNo93r14c18v1.5.jpg	 l	 2.221	 GoodTrial	 allStim	 si
25	 2	 0	 x	 LineStimuli//1.5/stimNo155r0c0v1.5.jpg	 l	 1.687	 GoodTrial	 allStim	 si
26	 2	 1	 right	 LineStimuli//1.8/stimNo100r9c13v1.8.jpg	 l	 1.873	 GoodTrial	 allStim	 si
27	 2	 1	 right	 LineStimuli//2.3/stimNo103r11c21v2.3.jpg	 l	 1.682	 GoodTrial	 allStim	 si
28	 2	 0	 x	 LineStimuli//2.8/stimNo128r0c0v2.8.jpg	 r	 1.724	 GoodTrial	 allStim	 si
29	 2	 0	 x	 LineStimuli//3.3/stimNo134r0c0v3.3.jpg	 r	 1.535	 GoodTrial	 allStim	 si
30	 2	 1	 left	 LineStimuli//3.8/stimNo98r2c9v3.8.jpg	 l	 1.695	 GoodTrial	 allStim	 si
31	 2	 1	 left	 LineStimuli//4.3/stimNo100r8c3v4.3.jpg	 l	 1.715	 GoodTrial	 allStim	 si
32	 2	 1	 left	 LineStimuli//4.3/stimNo83r4c2v4.3.jpg	 l	 1.709	 GoodTrial	 allStim	 si
33	 2	 0	 x	 LineStimuli//3.8/stimNo125r0c0v3.8.jpg	 r	 2.629	 GoodTrial	 allStim	 si
34	 2	 0	 x	 LineStimuli//3.3/stimNo131r0c0v3.3.jpg	 r	 1.787	 GoodTrial	 allStim	 si
35	 2	 0	 x	 LineStimuli//2.8/stimNo131r0c0v2.8.jpg	 r	 1.616	 GoodTrial	 allStim	 si
36	 2	 1	 left	 LineStimuli//2.3/stimNo108r15c6v2.3.jpg	 l	 1.642	 GoodTrial	 allStim	 si
37	 2	 1	 left	 LineStimuli//1.8/stimNo95r4c9v1.8.jpg	 l	 1.638	 GoodTrial	 allStim	 si
38	 2	 0	 x	 LineStimuli//1.5/stimNo125r0c0v1.5.jpg	 r	 2.181	 GoodTrial	 allStim	 si
39	 2	 0	 x	 LineStimuli//1.5/stimNo134r0c0v1.5.jpg	 r	 4.399	 GoodTrial	 allStim	 si
40	 2	 1	 left	 LineStimuli//1.8/stimNo110r4c7v1.8.jpg	 l	 1.602	 GoodTrial	 allStim	 si
41	 2	 1	 left	 LineStimuli//2.3/stimNo86r8c9v2.3.jpg	 l	 4.393	 GoodTrial	 allStim	 si
42	 2	 1	 left	 LineStimuli//2.8/stimNo98r15c2v2.8.jpg	 l	 1.624	 GoodTrial	 allStim	 si
43	 2	 1	 right	 LineStimuli//3.3/stimNo118r3c16v3.3.jpg	 l	 1.491	 GoodTrial	 allStim	 si
44	 2	 0	 x	 LineStimuli//3.8/stimNo121r0c0v3.8.jpg	 r	 1.633	 GoodTrial	 allStim	 si
45	 2	 0	 x	 LineStimuli//4.3/stimNo141r0c0v4.3.jpg	 r	 1.614	 GoodTrial	 allStim	 si
46	 2	 1	 right	 LineStimuli//4.3/stimNo84r15c20v4.3.jpg	 l	 1.581	 GoodTrial	 allStim	 si
47	 2	 1	 right	 LineStimuli//3.8/stimNo92r6c21v3.8.jpg	 l	 1.557	 GoodTrial	 allStim	 si
48	 2	 0	 x	 LineStimuli//3.3/stimNo155r0c0v3.3.jpg	 r	 1.610	 GoodTrial	 allStim	 si
49	 2	 1	 right	 LineStimuli//2.8/stimNo110r7c14v2.8.jpg	 l	 1.540	 GoodTrial	 allStim	 si
50	 2	 0	 x	 LineStimuli//2.3/stimNo146r0c0v2.3.jpg	 r	 2.535	 GoodTrial	 allStim	 si
1	 3	 0	 x	 LineStimuli//3.3/stimNo138r0c0v3.3.jpg	 r	 1.704	 GoodTrial	 allStim	 si
2	 3	 0	 x	 LineStimuli//3.8/stimNo149r0c0v3.8.jpg	 r	 1.522	 GoodTrial	 allStim	 si
3	 3	 0	 x	 LineStimuli//4.3/stimNo159r0c0v4.3.jpg	 r	 1.478	 GoodTrial	 allStim	 si
4	 3	 1	 right	 LineStimuli//4.3/stimNo96r4c19v4.3.jpg	 l	 1.549	 GoodTrial	 allStim	 si
5	 3	 1	 right	 LineStimuli//3.8/stimNo96r2c13v3.8.jpg	 l	 1.501	 GoodTrial	 allStim	 si
6	 3	 1	 right	 LineStimuli//3.3/stimNo105r7c20v3.3.jpg	 r	 1.444	 GoodTrial	 allStim	 si
7	 3	 0	 x	 LineStimuli//2.8/stimNo122r0c0v2.8.jpg	 r	 1.827	 GoodTrial	 allStim	 si
8	 3	 0	 x	 LineStimuli//2.3/stimNo152r0c0v2.3.jpg	 r	 2.375	 GoodTrial	 allStim	 si
9	 3	 1	 left	 LineStimuli//1.8/stimNo89r11c6v1.8.jpg	 l	 1.651	 GoodTrial	 allStim	 si
10	 3	 0	 x	 LineStimuli//1.5/stimNo134r0c0v1.5.jpg	 r	 4.416	 GoodTrial	 allStim	 si
11	 3	 0	 x	 LineStimuli//1.5/stimNo153r0c0v1.5.jpg	 r	 7.074	 GoodTrial	 allStim	 si
12	 3	 0	 x	 LineStimuli//1.8/stimNo127r0c0v1.8.jpg	 r	 5.329	 GoodTrial	 allStim	 si
13	 3	 0	 x	 LineStimuli//2.3/stimNo128r0c0v2.3.jpg	 r	 2.036	 GoodTrial	 allStim	 si
14	 3	 1	 right	 LineStimuli//2.8/stimNo93r9c20v2.8.jpg	 l	 1.509	 GoodTrial	 allStim	 si
15	 3	 1	 right	 LineStimuli//3.3/stimNo105r7c20v3.3.jpg	 l	 1.470	 GoodTrial	 allStim	 si
16	 3	 1	 right	 LineStimuli//3.8/stimNo112r12c16v3.8.jpg	 l	 1.451	 GoodTrial	 allStim	 si
17	 3	 0	 x	 LineStimuli//4.3/stimNo129r0c0v4.3.jpg	 r	 2.566	 GoodTrial	 allStim	 si
18	 3	 1	 right	 LineStimuli//4.3/stimNo97r6c21v4.3.jpg	 l	 1.490	 GoodTrial	 allStim	 si
19	 3	 1	 right	 LineStimuli//3.8/stimNo95r5c21v3.8.jpg	 l	 1.484	 GoodTrial	 allStim	 si
20	 3	 1	 right	 LineStimuli//3.3/stimNo98r4c21v3.3.jpg	 l	 1.535	 GoodTrial	 allStim	 si
21	 3	 0	 x	 LineStimuli//2.8/stimNo134r0c0v2.8.jpg	 r	 1.982	 GoodTrial	 allStim	 si
22	 3	 0	 x	 LineStimuli//2.3/stimNo137r0c0v2.3.jpg	 r	 1.673	 GoodTrial	 allStim	 si
23	 3	 1	 left	 LineStimuli//1.8/stimNo86r14c4v1.8.jpg	 l	 1.588	 GoodTrial	 allStim	 si
24	 3	 1	 right	 LineStimuli//1.5/stimNo98r8c21v1.5.jpg	 l	 1.635	 GoodTrial	 allStim	 si
25	 3	 0	 x	 LineStimuli//1.5/stimNo145r0c0v1.5.jpg	 r	 1.853	 GoodTrial	 allStim	 si
26	 3	 1	 left	 LineStimuli//1.8/stimNo88r15c9v1.8.jpg	 l	 1.786	 GoodTrial	 allStim	 si
27	 3	 0	 x	 LineStimuli//2.3/stimNo138r0c0v2.3.jpg	 r	 1.698	 GoodTrial	 allStim	 si
28	 3	 0	 x	 LineStimuli//2.8/stimNo144r0c0v2.8.jpg	 r	 1.659	 GoodTrial	 allStim	 si
29	 3	 1	 left	 LineStimuli//3.3/stimNo85r6c4v3.3.jpg	 l	 1.741	 GoodTrial	 allStim	 si
30	 3	 1	 left	 LineStimuli//3.8/stimNo100r13c6v3.8.jpg	 l	 1.471	 GoodTrial	 allStim	 si
31	 3	 0	 x	 LineStimuli//4.3/stimNo136r0c0v4.3.jpg	 r	 1.565	 GoodTrial	 allStim	 si
32	 3	 0	 x	 LineStimuli//4.3/stimNo160r0c0v4.3.jpg	 r	 1.795	 GoodTrial	 allStim	 si
33	 3	 1	 left	 LineStimuli//3.8/stimNo120r5c3v3.8.jpg	 l	 1.541	 GoodTrial	 allStim	 si
34	 3	 0	 x	 LineStimuli//3.3/stimNo152r0c0v3.3.jpg	 r	 1.920	 GoodTrial	 allStim	 si
35	 3	 1	 right	 LineStimuli//2.8/stimNo118r5c16v2.8.jpg	 l	 1.441	 GoodTrial	 allStim	 si
36	 3	 1	 right	 LineStimuli//2.3/stimNo85r4c15v2.3.jpg	 l	 1.797	 GoodTrial	 allStim	 si
37	 3	 0	 x	 LineStimuli//1.8/stimNo123r0c0v1.8.jpg	 r	 2.426	 GoodTrial	 allStim	 si
38	 3	 1	 right	 LineStimuli//1.5/stimNo101r5c20v1.5.jpg	 l	 2.023	 GoodTrial	 allStim	 si
39	 3	 1	 right	 LineStimuli//1.5/stimNo101r5c20v1.5.jpg	 r	 1.650	 GoodTrial	 allStim	 si
40	 3	 0	 x	 LineStimuli//1.8/stimNo124r0c0v1.8.jpg	 r	 1.925	 GoodTrial	 allStim	 si
41	 3	 0	 x	 LineStimuli//2.3/stimNo159r0c0v2.3.jpg	 r	 1.689	 GoodTrial	 allStim	 si
42	 3	 0	 x	 LineStimuli//2.8/stimNo154r0c0v2.8.jpg	 r	 1.612	 GoodTrial	 allStim	 si
43	 3	 1	 left	 LineStimuli//3.3/stimNo110r4c3v3.3.jpg	 l	 1.600	 GoodTrial	 allStim	 si
44	 3	 0	 x	 LineStimuli//3.8/stimNo148r0c0v3.8.jpg	 r	 1.502	 GoodTrial	 allStim	 si
45	 3	 1	 right	 LineStimuli//4.3/stimNo91r9c13v4.3.jpg	 l	 1.476	 GoodTrial	 allStim	 si
46	 3	 1	 left	 LineStimuli//4.3/stimNo101r5c5v4.3.jpg	 l	 1.468	 GoodTrial	 allStim	 si
47	 3	 0	 x	 LineStimuli//3.8/stimNo121r0c0v3.8.jpg	 r	 1.625	 GoodTrial	 allStim	 si
48	 3	 0	 x	 LineStimuli//3.3/stimNo128r0c0v3.3.jpg	 r	 1.733	 GoodTrial	 allStim	 si
49	 3	 1	 right	 LineStimuli//2.8/stimNo103r3c19v2.8.jpg	 l	 1.590	 GoodTrial	 allStim	 si
50	 3	 1	 right	 LineStimuli//2.3/stimNo107r11c15v2.3.jpg	 l	 1.573	 GoodTrial	 allStim	 si
1	 4	 0	 x	 LineStimuli//3.3/stimNo139r0c0v3.3.jpg	 r	 1.643	 GoodTrial	 allStim	 si
2	 4	 1	 left	 LineStimuli//3.8/stimNo83r9c9v3.8.jpg	 l	 1.554	 GoodTrial	 allStim	 si
3	 4	 1	 left	 LineStimuli//4.3/stimNo107r2c8v4.3.jpg	 l	 1.638	 GoodTrial	 allStim	 si
4	 4	 0	 x	 LineStimuli//4.3/stimNo122r0c0v4.3.jpg	 r	 1.542	 GoodTrial	 allStim	 si
5	 4	 0	 x	 LineStimuli//3.8/stimNo134r0c0v3.8.jpg	 r	 1.466	 GoodTrial	 allStim	 si
6	 4	 0	 x	 LineStimuli//3.3/stimNo142r0c0v3.3.jpg	 r	 1.527	 GoodTrial	 allStim	 si
7	 4	 0	 x	 LineStimuli//2.8/stimNo159r0c0v2.8.jpg	 r	 1.506	 GoodTrial	 allStim	 si
8	 4	 1	 left	 LineStimuli//2.3/stimNo83r14c4v2.3.jpg	 l	 1.528	 GoodTrial	 allStim	 si
9	 4	 0	 x	 LineStimuli//1.8/stimNo126r0c0v1.8.jpg	 r	 1.477	 GoodTrial	 allStim	 si
10	 4	 1	 right	 LineStimuli//1.5/stimNo107r2c19v1.5.jpg	 l	 4.522	 GoodTrial	 allStim	 si
11	 4	 1	 right	 LineStimuli//1.5/stimNo111r7c17v1.5.jpg	 l	 2.065	 GoodTrial	 allStim	 si
12	 4	 1	 left	 LineStimuli//1.8/stimNo96r13c2v1.8.jpg	 l	 2.048	 GoodTrial	 allStim	 si
13	 4	 0	 x	 LineStimuli//2.3/stimNo124r0c0v2.3.jpg	 r	 1.769	 GoodTrial	 allStim	 si
14	 4	 0	 x	 LineStimuli//2.8/stimNo130r0c0v2.8.jpg	 r	 1.899	 GoodTrial	 allStim	 si
15	 4	 1	 right	 LineStimuli//3.3/stimNo105r7c20v3.3.jpg	 l	 1.589	 GoodTrial	 allStim	 si
16	 4	 0	 x	 LineStimuli//3.8/stimNo135r0c0v3.8.jpg	 r	 2.364	 GoodTrial	 allStim	 si
17	 4	 0	 x	 LineStimuli//4.3/stimNo149r0c0v4.3.jpg	 r	 1.657	 GoodTrial	 allStim	 si
18	 4	 1	 right	 LineStimuli//4.3/stimNo97r6c21v4.3.jpg	 r	 1.455	 GoodTrial	 allStim	 si
19	 4	 0	 x	 LineStimuli//3.8/stimNo156r0c0v3.8.jpg	 r	 1.804	 GoodTrial	 allStim	 si
20	 4	 1	 right	 LineStimuli//3.3/stimNo82r11c20v3.3.jpg	 l	 1.540	 GoodTrial	 allStim	 si
21	 4	 0	 x	 LineStimuli//2.8/stimNo155r0c0v2.8.jpg	 r	 1.855	 GoodTrial	 allStim	 si
22	 4	 1	 left	 LineStimuli//2.3/stimNo112r3c2v2.3.jpg	 l	 1.626	 GoodTrial	 allStim	 si
23	 4	 1	 right	 LineStimuli//1.8/stimNo108r9c21v1.8.jpg	 l	 1.624	 GoodTrial	 allStim	 si
24	 4	 0	 x	 LineStimuli//1.5/stimNo130r0c0v1.5.jpg	 r	 2.312	 GoodTrial	 allStim	 si
25	 4	 0	 x	 LineStimuli//1.5/stimNo152r0c0v1.5.jpg	 r	 6.988	 GoodTrial	 allStim	 si
26	 4	 0	 x	 LineStimuli//1.8/stimNo130r0c0v1.8.jpg	 r	 4.145	 GoodTrial	 allStim	 si
27	 4	 1	 left	 LineStimuli//2.3/stimNo82r12c4v2.3.jpg	 l	 1.591	 GoodTrial	 allStim	 si
28	 4	 1	 right	 LineStimuli//2.8/stimNo115r9c14v2.8.jpg	 l	 1.520	 GoodTrial	 allStim	 si
29	 4	 1	 left	 LineStimuli//3.3/stimNo115r3c4v3.3.jpg	 l	 1.570	 GoodTrial	 allStim	 si
30	 4	 0	 x	 LineStimuli//3.8/stimNo142r0c0v3.8.jpg	 r	 3.055	 GoodTrial	 allStim	 si
31	 4	 0	 x	 LineStimuli//4.3/stimNo122r0c0v4.3.jpg	 r	 2.134	 GoodTrial	 allStim	 si
32	 4	 1	 right	 LineStimuli//4.3/stimNo118r11c13v4.3.jpg	 l	 1.703	 GoodTrial	 allStim	 si
33	 4	 1	 right	 LineStimuli//3.8/stimNo112r12c16v3.8.jpg	 l	 2.073	 GoodTrial	 allStim	 si
34	 4	 1	 right	 LineStimuli//3.3/stimNo120r8c14v3.3.jpg	 l	 1.664	 GoodTrial	 allStim	 si
35	 4	 0	 x	 LineStimuli//2.8/stimNo121r0c0v2.8.jpg	 r	 1.809	 GoodTrial	 allStim	 si
36	 4	 1	 right	 LineStimuli//2.3/stimNo101r8c14v2.3.jpg	 l	 1.522	 GoodTrial	 allStim	 si
37	 4	 0	 x	 LineStimuli//1.8/stimNo145r0c0v1.8.jpg	 r	 4.770	 GoodTrial	 allStim	 si
38	 4	 1	 left	 LineStimuli//1.5/stimNo110r7c3v1.5.jpg	 l	 1.598	 GoodTrial	 allStim	 si
39	 4	 1	 left	 LineStimuli//1.5/stimNo102r7c6v1.5.jpg	 l	 2.407	 GoodTrial	 allStim	 si
40	 4	 1	 left	 LineStimuli//1.8/stimNo98r15c5v1.8.jpg	 l	 1.658	 GoodTrial	 allStim	 si
41	 4	 0	 x	 LineStimuli//2.3/stimNo153r0c0v2.3.jpg	 r	 2.184	 GoodTrial	 allStim	 si
42	 4	 1	 right	 LineStimuli//2.8/stimNo90r13c21v2.8.jpg	 l	 1.517	 GoodTrial	 allStim	 si
43	 4	 1	 left	 LineStimuli//3.3/stimNo100r3c3v3.3.jpg	 l	 1.519	 GoodTrial	 allStim	 si
44	 4	 1	 left	 LineStimuli//3.8/stimNo113r14c9v3.8.jpg	 l	 1.481	 GoodTrial	 allStim	 si
45	 4	 1	 left	 LineStimuli//4.3/stimNo110r6c7v4.3.jpg	 l	 1.484	 GoodTrial	 allStim	 si
46	 4	 0	 x	 LineStimuli//4.3/stimNo139r0c0v4.3.jpg	 r	 1.636	 GoodTrial	 allStim	 si
47	 4	 1	 left	 LineStimuli//3.8/stimNo89r10c7v3.8.jpg	 l	 1.642	 GoodTrial	 allStim	 si
48	 4	 1	 left	 LineStimuli//3.3/stimNo108r13c2v3.3.jpg	 l	 1.617	 GoodTrial	 allStim	 si
49	 4	 1	 right	 LineStimuli//2.8/stimNo93r9c20v2.8.jpg	 l	 1.571	 GoodTrial	 allStim	 si
50	 4	 1	 right	 LineStimuli//2.3/stimNo107r11c15v2.3.jpg	 l	 1.619	 GoodTrial	 allStim	 si
1	 5	 1	 right	 LineStimuli//3.3/stimNo82r11c20v3.3.jpg	 l	 2.344	 GoodTrial	 allStim	 si
2	 5	 1	 left	 LineStimuli//3.8/stimNo103r11c7v3.8.jpg	 l	 1.456	 GoodTrial	 allStim	 si
3	 5	 1	 right	 LineStimuli//4.3/stimNo91r9c13v4.3.jpg	 l	 1.411	 GoodTrial	 allStim	 si
4	 5	 0	 x	 LineStimuli//4.3/stimNo146r0c0v4.3.jpg	 r	 1.414	 GoodTrial	 allStim	 si
5	 5	 1	 left	 LineStimuli//3.8/stimNo83r9c9v3.8.jpg	 l	 1.508	 GoodTrial	 allStim	 si
6	 5	 0	 x	 LineStimuli//3.3/stimNo160r0c0v3.3.jpg	 r	 1.555	 GoodTrial	 allStim	 si
7	 5	 1	 right	 LineStimuli//2.8/stimNo120r8c20v2.8.jpg	 l	 1.477	 GoodTrial	 allStim	 si
8	 5	 1	 right	 LineStimuli//2.3/stimNo89r8c21v2.3.jpg	 l	 1.526	 GoodTrial	 allStim	 si
9	 5	 1	 right	 LineStimuli//1.8/stimNo90r15c13v1.8.jpg	 l	 1.829	 GoodTrial	 allStim	 si
10	 5	 1	 left	 LineStimuli//1.5/stimNo99r10c3v1.5.jpg	 l	 2.050	 GoodTrial	 allStim	 si
11	 5	 1	 right	 LineStimuli//1.5/stimNo119r6c19v1.5.jpg	 l	 1.639	 GoodTrial	 allStim	 si
12	 5	 0	 x	 LineStimuli//1.8/stimNo157r0c0v1.8.jpg	 r	 2.848	 GoodTrial	 allStim	 si
13	 5	 0	 x	 LineStimuli//2.3/stimNo146r0c0v2.3.jpg	 r	 1.697	 GoodTrial	 allStim	 si
14	 5	 1	 right	 LineStimuli//2.8/stimNo120r8c20v2.8.jpg	 l	 1.523	 GoodTrial	 allStim	 si
15	 5	 1	 right	 LineStimuli//3.3/stimNo120r8c14v3.3.jpg	 l	 1.507	 GoodTrial	 allStim	 si
16	 5	 1	 right	 LineStimuli//3.8/stimNo94r6c17v3.8.jpg	 l	 1.542	 GoodTrial	 allStim	 si
17	 5	 1	 left	 LineStimuli//4.3/stimNo88r10c3v4.3.jpg	 l	 1.551	 GoodTrial	 allStim	 si
18	 5	 1	 left	 LineStimuli//4.3/stimNo107r2c8v4.3.jpg	 l	 1.610	 GoodTrial	 allStim	 si
19	 5	 0	 x	 LineStimuli//3.8/stimNo135r0c0v3.8.jpg	 r	 1.688	 GoodTrial	 allStim	 si
20	 5	 1	 right	 LineStimuli//3.3/stimNo89r5c21v3.3.jpg	 l	 1.530	 GoodTrial	 allStim	 si
21	 5	 0	 x	 LineStimuli//2.8/stimNo159r0c0v2.8.jpg	 r	 2.272	 GoodTrial	 allStim	 si
22	 5	 1	 left	 LineStimuli//2.3/stimNo83r14c4v2.3.jpg	 l	 1.672	 GoodTrial	 allStim	 si
23	 5	 1	 right	 LineStimuli//1.8/stimNo90r15c13v1.8.jpg	 l	 1.945	 GoodTrial	 allStim	 si
24	 5	 1	 right	 LineStimuli//1.5/stimNo81r6c17v1.5.jpg	 l	 1.662	 GoodTrial	 allStim	 si
25	 5	 0	 x	 LineStimuli//1.5/stimNo121r0c0v1.5.jpg	 r	 2.384	 GoodTrial	 allStim	 si
26	 5	 1	 left	 LineStimuli//1.8/stimNo98r15c5v1.8.jpg	 l	 1.963	 GoodTrial	 allStim	 si
27	 5	 0	 x	 LineStimuli//2.3/stimNo136r0c0v2.3.jpg	 r	 2.304	 GoodTrial	 allStim	 si
28	 5	 0	 x	 LineStimuli//2.8/stimNo135r0c0v2.8.jpg	 r	 1.544	 GoodTrial	 allStim	 si
29	 5	 1	 right	 LineStimuli//3.3/stimNo89r5c21v3.3.jpg	 l	 1.621	 GoodTrial	 allStim	 si
30	 5	 1	 right	 LineStimuli//3.8/stimNo82r9c21v3.8.jpg	 l	 1.642	 GoodTrial	 allStim	 si
31	 5	 1	 right	 LineStimuli//4.3/stimNo97r6c21v4.3.jpg	 l	 1.623	 GoodTrial	 allStim	 si
32	 5	 1	 right	 LineStimuli//4.3/stimNo116r5c13v4.3.jpg	 l	 1.546	 GoodTrial	 allStim	 si
33	 5	 1	 left	 LineStimuli//3.8/stimNo93r8c2v3.8.jpg	 l	 1.548	 GoodTrial	 allStim	 si
34	 5	 0	 x	 LineStimuli//3.3/stimNo138r0c0v3.3.jpg	 r	 1.771	 GoodTrial	 allStim	 si
35	 5	 0	 x	 LineStimuli//2.8/stimNo150r0c0v2.8.jpg	 r	 1.760	 GoodTrial	 allStim	 si
36	 5	 1	 left	 LineStimuli//2.3/stimNo83r14c4v2.3.jpg	 l	 1.628	 GoodTrial	 allStim	 si
37	 5	 0	 x	 LineStimuli//1.8/stimNo135r0c0v1.8.jpg	 r	 1.984	 GoodTrial	 allStim	 si
38	 5	 0	 x	 LineStimuli//1.5/stimNo144r0c0v1.5.jpg	 r	 2.050	 GoodTrial	 allStim	 si
39	 5	 0	 x	 LineStimuli//1.5/stimNo150r0c0v1.5.jpg	 r	 3.317	 GoodTrial	 allStim	 si
40	 5	 0	 x	 LineStimuli//1.8/stimNo141r0c0v1.8.jpg	 r	 1.671	 GoodTrial	 allStim	 si
41	 5	 0	 x	 LineStimuli//2.3/stimNo149r0c0v2.3.jpg	 r	 1.792	 GoodTrial	 allStim	 si
42	 5	 1	 right	 LineStimuli//2.8/stimNo111r9c15v2.8.jpg	 l	 1.577	 GoodTrial	 allStim	 si
43	 5	 1	 right	 LineStimuli//3.3/stimNo91r12c16v3.3.jpg	 l	 2.029	 GoodTrial	 allStim	 si
44	 5	 1	 left	 LineStimuli//3.8/stimNo110r7c9v3.8.jpg	 l	 1.535	 GoodTrial	 allStim	 si
45	 5	 0	 x	 LineStimuli//4.3/stimNo153r0c0v4.3.jpg	 r	 1.581	 GoodTrial	 allStim	 si
46	 5	 0	 x	 LineStimuli//4.3/stimNo144r0c0v4.3.jpg	 r	 1.528	 GoodTrial	 allStim	 si
47	 5	 1	 right	 LineStimuli//3.8/stimNo91r10c16v3.8.jpg	 l	 1.612	 GoodTrial	 allStim	 si
48	 5	 0	 x	 LineStimuli//3.3/stimNo130r0c0v3.3.jpg	 r	 1.468	 GoodTrial	 allStim	 si
49	 5	 1	 right	 LineStimuli//2.8/stimNo90r13c21v2.8.jpg	 l	 1.520	 GoodTrial	 allStim	 si
50	 5	 1	 right	 LineStimuli//2.3/stimNo92r10c17v2.3.jpg	 l	 1.538	 GoodTrial	 allStim	 si
1	 6	 0	 x	 LineStimuli//3.3/stimNo143r0c0v3.3.jpg	 r	 1.697	 GoodTrial	 allStim	 si
2	 6	 0	 x	 LineStimuli//3.8/stimNo123r0c0v3.8.jpg	 r	 1.454	 GoodTrial	 allStim	 si
3	 6	 1	 right	 LineStimuli//4.3/stimNo97r6c21v4.3.jpg	 l	 1.523	 GoodTrial	 allStim	 si
4	 6	 1	 right	 LineStimuli//4.3/stimNo81r10c14v4.3.jpg	 r	 1.455	 GoodTrial	 allStim	 si
5	 6	 1	 left	 LineStimuli//3.8/stimNo89r10c7v3.8.jpg	 l	 1.488	 GoodTrial	 allStim	 si
6	 6	 0	 x	 LineStimuli//3.3/stimNo126r0c0v3.3.jpg	 r	 1.536	 GoodTrial	 allStim	 si
7	 6	 1	 left	 LineStimuli//2.8/stimNo102r3c2v2.8.jpg	 l	 1.569	 GoodTrial	 allStim	 si
8	 6	 0	 x	 LineStimuli//2.3/stimNo135r0c0v2.3.jpg	 r	 1.662	 GoodTrial	 allStim	 si
9	 6	 0	 x	 LineStimuli//1.8/stimNo159r0c0v1.8.jpg	 r	 2.090	 GoodTrial	 allStim	 si
10	 6	 0	 x	 LineStimuli//1.5/stimNo145r0c0v1.5.jpg	 r	 1.896	 GoodTrial	 allStim	 si
11	 6	 1	 left	 LineStimuli//1.5/stimNo113r4c4v1.5.jpg	 l	 1.780	 GoodTrial	 allStim	 si
12	 6	 1	 right	 LineStimuli//1.8/stimNo114r8c13v1.8.jpg	 l	 1.734	 GoodTrial	 allStim	 si
13	 6	 1	 left	 LineStimuli//2.3/stimNo88r15c2v2.3.jpg	 l	 1.736	 GoodTrial	 allStim	 si
14	 6	 1	 right	 LineStimuli//2.8/stimNo99r9c18v2.8.jpg	 l	 1.717	 GoodTrial	 allStim	 si
15	 6	 1	 right	 LineStimuli//3.3/stimNo112r5c15v3.3.jpg	 l	 1.517	 GoodTrial	 allStim	 si
16	 6	 1	 right	 LineStimuli//3.8/stimNo111r15c20v3.8.jpg	 l	 1.583	 GoodTrial	 allStim	 si
17	 6	 0	 x	 LineStimuli//4.3/stimNo148r0c0v4.3.jpg	 r	 2.058	 GoodTrial	 allStim	 si
18	 6	 1	 right	 LineStimuli//4.3/stimNo94r12c13v4.3.jpg	 l	 1.602	 GoodTrial	 allStim	 si
19	 6	 1	 right	 LineStimuli//3.8/stimNo85r3c13v3.8.jpg	 l	 1.523	 GoodTrial	 allStim	 si
20	 6	 0	 x	 LineStimuli//3.3/stimNo126r0c0v3.3.jpg	 r	 1.772	 GoodTrial	 allStim	 si
21	 6	 0	 x	 LineStimuli//2.8/stimNo132r0c0v2.8.jpg	 r	 1.814	 GoodTrial	 allStim	 si
22	 6	 1	 right	 LineStimuli//2.3/stimNo120r4c17v2.3.jpg	 l	 1.696	 GoodTrial	 allStim	 si
23	 6	 1	 right	 LineStimuli//1.8/stimNo117r10c16v1.8.jpg	 l	 1.557	 GoodTrial	 allStim	 si
24	 6	 0	 x	 LineStimuli//1.5/stimNo137r0c0v1.5.jpg	 r	 1.643	 GoodTrial	 allStim	 si
25	 6	 0	 x	 LineStimuli//1.5/stimNo132r0c0v1.5.jpg	 r	 4.354	 GoodTrial	 allStim	 si
26	 6	 1	 left	 LineStimuli//1.8/stimNo115r5c9v1.8.jpg	 l	 1.607	 GoodTrial	 allStim	 si
27	 6	 0	 x	 LineStimuli//2.3/stimNo133r0c0v2.3.jpg	 r	 3.630	 GoodTrial	 allStim	 si
28	 6	 0	 x	 LineStimuli//2.8/stimNo124r0c0v2.8.jpg	 r	 1.745	 GoodTrial	 allStim	 si
29	 6	 1	 left	 LineStimuli//3.3/stimNo85r6c4v3.3.jpg	 l	 1.578	 GoodTrial	 allStim	 si
30	 6	 1	 right	 LineStimuli//3.8/stimNo85r3c13v3.8.jpg	 l	 1.596	 GoodTrial	 allStim	 si
31	 6	 1	 left	 LineStimuli//4.3/stimNo101r5c5v4.3.jpg	 l	 1.593	 GoodTrial	 allStim	 si
32	 6	 1	 right	 LineStimuli//4.3/stimNo99r14c18v4.3.jpg	 l	 1.662	 GoodTrial	 allStim	 si
33	 6	 1	 left	 LineStimuli//3.8/stimNo105r2c6v3.8.jpg	 l	 1.656	 GoodTrial	 allStim	 si
34	 6	 0	 x	 LineStimuli//3.3/stimNo134r0c0v3.3.jpg	 r	 1.887	 GoodTrial	 allStim	 si
35	 6	 0	 x	 LineStimuli//2.8/stimNo146r0c0v2.8.jpg	 r	 2.003	 GoodTrial	 allStim	 si
36	 6	 0	 x	 LineStimuli//2.3/stimNo141r0c0v2.3.jpg	 r	 1.624	 GoodTrial	 allStim	 si
37	 6	 1	 right	 LineStimuli//1.8/stimNo92r10c18v1.8.jpg	 l	 2.178	 GoodTrial	 allStim	 si
38	 6	 1	 left	 LineStimuli//1.5/stimNo83r12c7v1.5.jpg	 l	 1.966	 GoodTrial	 allStim	 si
39	 6	 1	 right	 LineStimuli//1.5/stimNo105r3c18v1.5.jpg	 l	 1.987	 GoodTrial	 allStim	 si
40	 6	 0	 x	 LineStimuli//1.8/stimNo127r0c0v1.8.jpg	 r	 2.063	 GoodTrial	 allStim	 si
41	 6	 0	 x	 LineStimuli//2.3/stimNo151r0c0v2.3.jpg	 r	 1.564	 GoodTrial	 allStim	 si
42	 6	 0	 x	 LineStimuli//2.8/stimNo152r0c0v2.8.jpg	 r	 1.865	 GoodTrial	 allStim	 si
43	 6	 0	 x	 LineStimuli//3.3/stimNo149r0c0v3.3.jpg	 r	 1.522	 GoodTrial	 allStim	 si
44	 6	 1	 right	 LineStimuli//3.8/stimNo101r12c17v3.8.jpg	 l	 1.623	 GoodTrial	 allStim	 si
45	 6	 1	 right	 LineStimuli//4.3/stimNo120r8c18v4.3.jpg	 l	 2.076	 GoodTrial	 allStim	 si
46	 6	 0	 x	 LineStimuli//4.3/stimNo139r0c0v4.3.jpg	 r	 1.625	 GoodTrial	 allStim	 si
47	 6	 0	 x	 LineStimuli//3.8/stimNo150r0c0v3.8.jpg	 r	 1.814	 GoodTrial	 allStim	 si
48	 6	 0	 x	 LineStimuli//3.3/stimNo129r0c0v3.3.jpg	 r	 1.562	 GoodTrial	 allStim	 si
49	 6	 0	 x	 LineStimuli//2.8/stimNo135r0c0v2.8.jpg	 r	 1.624	 GoodTrial	 allStim	 si
50	 6	 0	 x	 LineStimuli//2.3/stimNo144r0c0v2.3.jpg	 r	 1.683	 GoodTrial	 allStim	 si
1	 7	 1	 right	 LineStimuli//3.3/stimNo82r11c20v3.3.jpg	 l	 1.636	 GoodTrial	 allStim	 si
2	 7	 1	 left	 LineStimuli//3.8/stimNo104r12c8v3.8.jpg	 l	 1.544	 GoodTrial	 allStim	 si
3	 7	 0	 x	 LineStimuli//4.3/stimNo144r0c0v4.3.jpg	 r	 1.540	 GoodTrial	 allStim	 si
4	 7	 0	 x	 LineStimuli//4.3/stimNo146r0c0v4.3.jpg	 r	 1.583	 GoodTrial	 allStim	 si
5	 7	 0	 x	 LineStimuli//3.8/stimNo135r0c0v3.8.jpg	 r	 1.520	 GoodTrial	 allStim	 si
6	 7	 0	 x	 LineStimuli//3.3/stimNo134r0c0v3.3.jpg	 r	 1.504	 GoodTrial	 allStim	 si
7	 7	 0	 x	 LineStimuli//2.8/stimNo135r0c0v2.8.jpg	 r	 1.488	 GoodTrial	 allStim	 si
8	 7	 0	 x	 LineStimuli//2.3/stimNo127r0c0v2.3.jpg	 r	 1.516	 GoodTrial	 allStim	 si
9	 7	 1	 left	 LineStimuli//1.8/stimNo81r6c8v1.8.jpg	 l	 1.955	 GoodTrial	 allStim	 si
10	 7	 1	 left	 LineStimuli//1.5/stimNo116r7c7v1.5.jpg	 l	 2.007	 GoodTrial	 allStim	 si
11	 7	 1	 right	 LineStimuli//1.5/stimNo101r5c20v1.5.jpg	 l	 1.711	 GoodTrial	 allStim	 si
12	 7	 1	 left	 LineStimuli//1.8/stimNo95r4c9v1.8.jpg	 l	 3.047	 GoodTrial	 allStim	 si
13	 7	 0	 x	 LineStimuli//2.3/stimNo149r0c0v2.3.jpg	 r	 1.894	 GoodTrial	 allStim	 si
14	 7	 0	 x	 LineStimuli//2.8/stimNo127r0c0v2.8.jpg	 r	 1.619	 GoodTrial	 allStim	 si
15	 7	 1	 right	 LineStimuli//3.3/stimNo88r9c14v3.3.jpg	 l	 1.473	 GoodTrial	 allStim	 si
16	 7	 0	 x	 LineStimuli//3.8/stimNo132r0c0v3.8.jpg	 r	 1.639	 GoodTrial	 allStim	 si
17	 7	 1	 right	 LineStimuli//4.3/stimNo82r7c18v4.3.jpg	 l	 1.430	 GoodTrial	 allStim	 si
18	 7	 0	 x	 LineStimuli//4.3/stimNo149r0c0v4.3.jpg	 r	 1.510	 GoodTrial	 allStim	 si
19	 7	 0	 x	 LineStimuli//3.8/stimNo150r0c0v3.8.jpg	 r	 2.418	 GoodTrial	 allStim	 si
20	 7	 1	 left	 LineStimuli//3.3/stimNo85r6c4v3.3.jpg	 l	 1.525	 GoodTrial	 allStim	 si
21	 7	 0	 x	 LineStimuli//2.8/stimNo142r0c0v2.8.jpg	 r	 1.500	 GoodTrial	 allStim	 si
22	 7	 0	 x	 LineStimuli//2.3/stimNo156r0c0v2.3.jpg	 r	 1.759	 GoodTrial	 allStim	 si
23	 7	 1	 left	 LineStimuli//1.8/stimNo89r11c6v1.8.jpg	 l	 1.575	 GoodTrial	 allStim	 si
24	 7	 1	 left	 LineStimuli//1.5/stimNo116r7c7v1.5.jpg	 l	 1.947	 GoodTrial	 allStim	 si
25	 7	 0	 x	 LineStimuli//1.5/stimNo142r0c0v1.5.jpg	 r	 3.408	 GoodTrial	 allStim	 si
26	 7	 1	 right	 LineStimuli//1.8/stimNo112r6c15v1.8.jpg	 l	 1.840	 GoodTrial	 allStim	 si
27	 7	 0	 x	 LineStimuli//2.3/stimNo159r0c0v2.3.jpg	 r	 1.618	 GoodTrial	 allStim	 si
28	 7	 0	 x	 LineStimuli//2.8/stimNo158r0c0v2.8.jpg	 r	 1.584	 GoodTrial	 allStim	 si
29	 7	 0	 x	 LineStimuli//3.3/stimNo144r0c0v3.3.jpg	 r	 1.444	 GoodTrial	 allStim	 si
30	 7	 1	 right	 LineStimuli//3.8/stimNo111r15c20v3.8.jpg	 l	 1.651	 GoodTrial	 allStim	 si
31	 7	 1	 left	 LineStimuli//4.3/stimNo104r15c2v4.3.jpg	 l	 2.150	 GoodTrial	 allStim	 si
32	 7	 1	 right	 LineStimuli//4.3/stimNo114r10c15v4.3.jpg	 l	 1.560	 GoodTrial	 allStim	 si
33	 7	 1	 left	 LineStimuli//3.8/stimNo119r9c8v3.8.jpg	 l	 1.427	 GoodTrial	 allStim	 si
34	 7	 0	 x	 LineStimuli//3.3/stimNo156r0c0v3.3.jpg	 r	 1.663	 GoodTrial	 allStim	 si
35	 7	 0	 x	 LineStimuli//2.8/stimNo126r0c0v2.8.jpg	 r	 1.613	 GoodTrial	 allStim	 si
36	 7	 1	 right	 LineStimuli//2.3/stimNo98r12c21v2.3.jpg	 l	 1.636	 GoodTrial	 allStim	 si
37	 7	 1	 left	 LineStimuli//1.8/stimNo91r14c4v1.8.jpg	 l	 1.917	 GoodTrial	 allStim	 si
38	 7	 1	 right	 LineStimuli//1.5/stimNo107r2c19v1.5.jpg	 l	 3.210	 GoodTrial	 allStim	 si
39	 7	 1	 right	 LineStimuli//1.5/stimNo115r14c18v1.5.jpg	 l	 2.447	 GoodTrial	 allStim	 si
40	 7	 0	 x	 LineStimuli//1.8/stimNo141r0c0v1.8.jpg	 r	 2.961	 GoodTrial	 allStim	 si
41	 7	 0	 x	 LineStimuli//2.3/stimNo123r0c0v2.3.jpg	 r	 3.107	 GoodTrial	 allStim	 si
42	 7	 0	 x	 LineStimuli//2.8/stimNo157r0c0v2.8.jpg	 r	 1.545	 GoodTrial	 allStim	 si
43	 7	 1	 left	 LineStimuli//3.3/stimNo90r2c9v3.3.jpg	 l	 1.572	 GoodTrial	 allStim	 si
44	 7	 0	 x	 LineStimuli//3.8/stimNo132r0c0v3.8.jpg	 r	 1.618	 GoodTrial	 allStim	 si
45	 7	 0	 x	 LineStimuli//4.3/stimNo136r0c0v4.3.jpg	 r	 1.474	 GoodTrial	 allStim	 si
46	 7	 1	 right	 LineStimuli//4.3/stimNo96r4c19v4.3.jpg	 l	 1.536	 GoodTrial	 allStim	 si
47	 7	 0	 x	 LineStimuli//3.8/stimNo154r0c0v3.8.jpg	 r	 1.567	 GoodTrial	 allStim	 si
48	 7	 0	 x	 LineStimuli//3.3/stimNo145r0c0v3.3.jpg	 r	 1.557	 GoodTrial	 allStim	 si
49	 7	 1	 right	 LineStimuli//2.8/stimNo90r13c21v2.8.jpg	 l	 1.555	 GoodTrial	 allStim	 si
50	 7	 0	 x	 LineStimuli//2.3/stimNo126r0c0v2.3.jpg	 r	 1.859	 GoodTrial	 allStim	 si
