Trial	Block	Target_pr	Target_side	Name	Key	RT	Message	Block_Type	Condition
1	 1	 1	 right	 LineStimuli//3.3/stimNo91r12c16v3.3.jpg	 l	 2.171	 GoodTrial	 allStim	 si
2	 1	 0	 x	 LineStimuli//3.8/stimNo127r0c0v3.8.jpg	 r	 3.050	 GoodTrial	 allStim	 si
3	 1	 1	 right	 LineStimuli//4.3/stimNo116r5c13v4.3.jpg	 l	 1.700	 GoodTrial	 allStim	 si
4	 1	 1	 right	 LineStimuli//4.3/stimNo117r10c21v4.3.jpg	 l	 1.799	 GoodTrial	 allStim	 si
5	 1	 0	 x	 LineStimuli//3.8/stimNo150r0c0v3.8.jpg	 r	 2.396	 GoodTrial	 allStim	 si
6	 1	 0	 x	 LineStimuli//3.3/stimNo152r0c0v3.3.jpg	 r	 3.271	 GoodTrial	 allStim	 si
7	 1	 1	 right	 LineStimuli//2.8/stimNo90r13c21v2.8.jpg	 l	 1.807	 GoodTrial	 allStim	 si
8	 1	 0	 x	 LineStimuli//2.3/stimNo140r0c0v2.3.jpg	 r	 2.845	 GoodTrial	 allStim	 si
9	 1	 0	 x	 LineStimuli//1.8/stimNo128r0c0v1.8.jpg	 r	 4.067	 GoodTrial	 allStim	 si
10	 1	 1	 left	 LineStimuli//1.5/stimNo97r15c6v1.5.jpg	 r	 6.134	 GoodTrial	 allStim	 si
11	 1	 1	 right	 LineStimuli//1.5/stimNo107r2c19v1.5.jpg	 r	 6.651	 GoodTrial	 allStim	 si
12	 1	 1	 left	 LineStimuli//1.8/stimNo116r4c7v1.8.jpg	 l	 1.938	 GoodTrial	 allStim	 si
13	 1	 1	 right	 LineStimuli//2.3/stimNo91r11c20v2.3.jpg	 l	 1.780	 GoodTrial	 allStim	 si
14	 1	 1	 left	 LineStimuli//2.8/stimNo86r15c6v2.8.jpg	 l	 2.205	 GoodTrial	 allStim	 si
15	 1	 0	 x	 LineStimuli//3.3/stimNo143r0c0v3.3.jpg	 r	 2.851	 GoodTrial	 allStim	 si
16	 1	 1	 left	 LineStimuli//3.8/stimNo105r2c6v3.8.jpg	 l	 1.806	 GoodTrial	 allStim	 si
17	 1	 0	 x	 LineStimuli//4.3/stimNo136r0c0v4.3.jpg	 r	 2.976	 GoodTrial	 allStim	 si
18	 1	 1	 right	 LineStimuli//4.3/stimNo109r15c15v4.3.jpg	 l	 1.730	 GoodTrial	 allStim	 si
19	 1	 0	 x	 LineStimuli//3.8/stimNo154r0c0v3.8.jpg	 r	 3.034	 GoodTrial	 allStim	 si
20	 1	 1	 left	 LineStimuli//3.3/stimNo108r13c2v3.3.jpg	 l	 1.730	 GoodTrial	 allStim	 si
21	 1	 1	 right	 LineStimuli//2.8/stimNo112r13c17v2.8.jpg	 l	 1.604	 GoodTrial	 allStim	 si
22	 1	 1	 left	 LineStimuli//2.3/stimNo94r8c9v2.3.jpg	 l	 1.660	 GoodTrial	 allStim	 si
23	 1	 0	 x	 LineStimuli//1.8/stimNo143r0c0v1.8.jpg	 r	 4.108	 GoodTrial	 allStim	 si
24	 1	 0	 x	 LineStimuli//1.5/stimNo133r0c0v1.5.jpg	 r	 8.266	 GoodTrial	 allStim	 si
25	 1	 0	 x	 LineStimuli//1.5/stimNo146r0c0v1.5.jpg	 r	 7.564	 GoodTrial	 allStim	 si
26	 1	 1	 right	 LineStimuli//1.8/stimNo99r12c16v1.8.jpg	 l	 2.998	 GoodTrial	 allStim	 si
27	 1	 0	 x	 LineStimuli//2.3/stimNo136r0c0v2.3.jpg	 r	 3.889	 GoodTrial	 allStim	 si
28	 1	 1	 right	 LineStimuli//2.8/stimNo110r7c14v2.8.jpg	 l	 1.619	 GoodTrial	 allStim	 si
29	 1	 1	 left	 LineStimuli//3.3/stimNo108r13c2v3.3.jpg	 l	 1.750	 GoodTrial	 allStim	 si
30	 1	 0	 x	 LineStimuli//3.8/stimNo141r0c0v3.8.jpg	 r	 2.069	 GoodTrial	 allStim	 si
31	 1	 0	 x	 LineStimuli//4.3/stimNo134r0c0v4.3.jpg	 r	 2.025	 GoodTrial	 allStim	 si
32	 1	 0	 x	 LineStimuli//4.3/stimNo124r0c0v4.3.jpg	 r	 2.275	 GoodTrial	 allStim	 si
33	 1	 1	 right	 LineStimuli//3.8/stimNo84r9c19v3.8.jpg	 l	 1.767	 GoodTrial	 allStim	 si
34	 1	 1	 left	 LineStimuli//3.3/stimNo104r4c4v3.3.jpg	 l	 2.238	 GoodTrial	 allStim	 si
35	 1	 1	 right	 LineStimuli//2.8/stimNo90r13c21v2.8.jpg	 l	 1.837	 GoodTrial	 allStim	 si
36	 1	 0	 x	 LineStimuli//2.3/stimNo160r0c0v2.3.jpg	 r	 3.071	 GoodTrial	 allStim	 si
37	 1	 1	 right	 LineStimuli//1.8/stimNo104r3c21v1.8.jpg	 l	 1.739	 GoodTrial	 allStim	 si
38	 1	 0	 x	 LineStimuli//1.5/stimNo156r0c0v1.5.jpg	 r	 6.808	 GoodTrial	 allStim	 si
39	 1	 1	 right	 LineStimuli//1.5/stimNo107r2c19v1.5.jpg	 r	 4.050	 GoodTrial	 allStim	 si
40	 1	 1	 right	 LineStimuli//1.8/stimNo119r3c21v1.8.jpg	 l	 5.922	 GoodTrial	 allStim	 si
41	 1	 0	 x	 LineStimuli//2.3/stimNo124r0c0v2.3.jpg	 r	 5.555	 GoodTrial	 allStim	 si
42	 1	 0	 x	 LineStimuli//2.8/stimNo135r0c0v2.8.jpg	 r	 1.885	 GoodTrial	 allStim	 si
43	 1	 1	 right	 LineStimuli//3.3/stimNo112r5c15v3.3.jpg	 l	 1.637	 GoodTrial	 allStim	 si
44	 1	 1	 right	 LineStimuli//3.8/stimNo102r10c17v3.8.jpg	 l	 1.707	 GoodTrial	 allStim	 si
45	 1	 0	 x	 LineStimuli//4.3/stimNo129r0c0v4.3.jpg	 r	 1.827	 GoodTrial	 allStim	 si
46	 1	 1	 left	 LineStimuli//4.3/stimNo86r7c3v4.3.jpg	 l	 1.667	 GoodTrial	 allStim	 si
47	 1	 1	 right	 LineStimuli//3.8/stimNo94r6c17v3.8.jpg	 l	 1.666	 GoodTrial	 allStim	 si
48	 1	 0	 x	 LineStimuli//3.3/stimNo157r0c0v3.3.jpg	 r	 2.896	 GoodTrial	 allStim	 si
49	 1	 1	 left	 LineStimuli//2.8/stimNo102r3c2v2.8.jpg	 l	 2.471	 GoodTrial	 allStim	 si
50	 1	 1	 left	 LineStimuli//2.3/stimNo113r3c8v2.3.jpg	 r	 2.554	 GoodTrial	 allStim	 si
1	 2	 0	 x	 LineStimuli//3.3/stimNo140r0c0v3.3.jpg	 r	 2.621	 GoodTrial	 allStim	 si
2	 2	 0	 x	 LineStimuli//3.8/stimNo145r0c0v3.8.jpg	 r	 2.079	 GoodTrial	 allStim	 si
3	 2	 1	 left	 LineStimuli//4.3/stimNo85r3c5v4.3.jpg	 l	 1.794	 GoodTrial	 allStim	 si
4	 2	 0	 x	 LineStimuli//4.3/stimNo153r0c0v4.3.jpg	 r	 2.701	 GoodTrial	 allStim	 si
5	 2	 1	 left	 LineStimuli//3.8/stimNo106r9c9v3.8.jpg	 r	 2.776	 GoodTrial	 allStim	 si
6	 2	 0	 x	 LineStimuli//3.3/stimNo149r0c0v3.3.jpg	 r	 3.659	 GoodTrial	 allStim	 si
7	 2	 0	 x	 LineStimuli//2.8/stimNo154r0c0v2.8.jpg	 r	 3.685	 GoodTrial	 allStim	 si
8	 2	 1	 left	 LineStimuli//2.3/stimNo116r2c2v2.3.jpg	 l	 1.980	 GoodTrial	 allStim	 si
9	 2	 1	 left	 LineStimuli//1.8/stimNo107r5c4v1.8.jpg	 l	 2.425	 GoodTrial	 allStim	 si
10	 2	 1	 left	 LineStimuli//1.5/stimNo116r7c7v1.5.jpg	 l	 2.982	 GoodTrial	 allStim	 si
11	 2	 1	 right	 LineStimuli//1.5/stimNo100r6c20v1.5.jpg	 l	 5.907	 GoodTrial	 allStim	 si
12	 2	 0	 x	 LineStimuli//1.8/stimNo133r0c0v1.8.jpg	 r	 8.423	 GoodTrial	 allStim	 si
13	 2	 1	 right	 LineStimuli//2.3/stimNo85r4c15v2.3.jpg	 l	 6.761	 GoodTrial	 allStim	 si
14	 2	 0	 x	 LineStimuli//2.8/stimNo146r0c0v2.8.jpg	 r	 3.035	 GoodTrial	 allStim	 si
15	 2	 1	 right	 LineStimuli//3.3/stimNo89r5c21v3.3.jpg	 l	 1.757	 GoodTrial	 allStim	 si
16	 2	 0	 x	 LineStimuli//3.8/stimNo153r0c0v3.8.jpg	 r	 2.135	 GoodTrial	 allStim	 si
17	 2	 0	 x	 LineStimuli//4.3/stimNo148r0c0v4.3.jpg	 r	 3.077	 GoodTrial	 allStim	 si
18	 2	 0	 x	 LineStimuli//4.3/stimNo140r0c0v4.3.jpg	 r	 2.131	 GoodTrial	 allStim	 si
19	 2	 0	 x	 LineStimuli//3.8/stimNo126r0c0v3.8.jpg	 r	 2.108	 GoodTrial	 allStim	 si
20	 2	 0	 x	 LineStimuli//3.3/stimNo154r0c0v3.3.jpg	 r	 1.657	 GoodTrial	 allStim	 si
21	 2	 1	 left	 LineStimuli//2.8/stimNo102r3c2v2.8.jpg	 l	 3.035	 GoodTrial	 allStim	 si
22	 2	 0	 x	 LineStimuli//2.3/stimNo146r0c0v2.3.jpg	 r	 4.772	 GoodTrial	 allStim	 si
23	 2	 0	 x	 LineStimuli//1.8/stimNo135r0c0v1.8.jpg	 r	 5.339	 GoodTrial	 allStim	 si
24	 2	 1	 right	 LineStimuli//1.5/stimNo86r6c16v1.5.jpg	 r	 10.766	 GoodTrial	 allStim	 si
25	 2	 1	 right	 LineStimuli//1.5/stimNo118r9c20v1.5.jpg	 l	 5.648	 GoodTrial	 allStim	 si
26	 2	 0	 x	 LineStimuli//1.8/stimNo132r0c0v1.8.jpg	 r	 10.769	 GoodTrial	 allStim	 si
27	 2	 1	 right	 LineStimuli//2.3/stimNo85r4c15v2.3.jpg	 l	 1.756	 GoodTrial	 allStim	 si
28	 2	 1	 right	 LineStimuli//2.8/stimNo103r3c19v2.8.jpg	 l	 2.114	 GoodTrial	 allStim	 si
29	 2	 0	 x	 LineStimuli//3.3/stimNo136r0c0v3.3.jpg	 r	 2.305	 GoodTrial	 allStim	 si
30	 2	 0	 x	 LineStimuli//3.8/stimNo140r0c0v3.8.jpg	 r	 2.423	 GoodTrial	 allStim	 si
31	 2	 0	 x	 LineStimuli//4.3/stimNo124r0c0v4.3.jpg	 r	 2.705	 GoodTrial	 allStim	 si
32	 2	 1	 left	 LineStimuli//4.3/stimNo90r10c4v4.3.jpg	 l	 1.854	 GoodTrial	 allStim	 si
33	 2	 1	 right	 LineStimuli//3.8/stimNo102r10c17v3.8.jpg	 l	 1.850	 GoodTrial	 allStim	 si
34	 2	 1	 left	 LineStimuli//3.3/stimNo111r15c7v3.3.jpg	 l	 2.010	 GoodTrial	 allStim	 si
35	 2	 0	 x	 LineStimuli//2.8/stimNo129r0c0v2.8.jpg	 r	 2.470	 GoodTrial	 allStim	 si
36	 2	 1	 left	 LineStimuli//2.3/stimNo97r3c3v2.3.jpg	 l	 1.794	 GoodTrial	 allStim	 si
37	 2	 1	 left	 LineStimuli//1.8/stimNo95r4c9v1.8.jpg	 l	 1.645	 GoodTrial	 allStim	 si
38	 2	 0	 x	 LineStimuli//1.5/stimNo122r0c0v1.5.jpg	 r	 5.040	 GoodTrial	 allStim	 si
39	 2	 1	 right	 LineStimuli//1.5/stimNo118r9c20v1.5.jpg	 l	 2.312	 GoodTrial	 allStim	 si
40	 2	 1	 right	 LineStimuli//1.8/stimNo112r6c15v1.8.jpg	 l	 1.652	 GoodTrial	 allStim	 si
41	 2	 0	 x	 LineStimuli//2.3/stimNo148r0c0v2.3.jpg	 r	 3.832	 GoodTrial	 allStim	 si
42	 2	 1	 right	 LineStimuli//2.8/stimNo109r6c18v2.8.jpg	 l	 1.664	 GoodTrial	 allStim	 si
43	 2	 1	 right	 LineStimuli//3.3/stimNo120r8c14v3.3.jpg	 l	 1.642	 GoodTrial	 allStim	 si
44	 2	 1	 left	 LineStimuli//3.8/stimNo104r12c8v3.8.jpg	 l	 1.692	 GoodTrial	 allStim	 si
45	 2	 0	 x	 LineStimuli//4.3/stimNo160r0c0v4.3.jpg	 r	 2.007	 GoodTrial	 allStim	 si
46	 2	 0	 x	 LineStimuli//4.3/stimNo157r0c0v4.3.jpg	 r	 1.825	 GoodTrial	 allStim	 si
47	 2	 0	 x	 LineStimuli//3.8/stimNo129r0c0v3.8.jpg	 r	 1.758	 GoodTrial	 allStim	 si
48	 2	 0	 x	 LineStimuli//3.3/stimNo146r0c0v3.3.jpg	 r	 2.112	 GoodTrial	 allStim	 si
49	 2	 0	 x	 LineStimuli//2.8/stimNo121r0c0v2.8.jpg	 r	 2.022	 GoodTrial	 allStim	 si
50	 2	 0	 x	 LineStimuli//2.3/stimNo156r0c0v2.3.jpg	 r	 1.903	 GoodTrial	 allStim	 si
1	 3	 0	 x	 LineStimuli//3.3/stimNo134r0c0v3.3.jpg	 r	 1.766	 GoodTrial	 allStim	 si
2	 3	 1	 right	 LineStimuli//3.8/stimNo82r9c21v3.8.jpg	 l	 1.700	 GoodTrial	 allStim	 si
3	 3	 0	 x	 LineStimuli//4.3/stimNo127r0c0v4.3.jpg	 r	 2.031	 GoodTrial	 allStim	 si
4	 3	 0	 x	 LineStimuli//4.3/stimNo138r0c0v4.3.jpg	 r	 2.278	 GoodTrial	 allStim	 si
5	 3	 0	 x	 LineStimuli//3.8/stimNo128r0c0v3.8.jpg	 r	 2.045	 GoodTrial	 allStim	 si
6	 3	 1	 right	 LineStimuli//3.3/stimNo87r15c13v3.3.jpg	 l	 1.760	 GoodTrial	 allStim	 si
7	 3	 1	 left	 LineStimuli//2.8/stimNo97r11c4v2.8.jpg	 l	 1.730	 GoodTrial	 allStim	 si
8	 3	 1	 right	 LineStimuli//2.3/stimNo99r2c13v2.3.jpg	 l	 2.777	 GoodTrial	 allStim	 si
9	 3	 0	 x	 LineStimuli//1.8/stimNo131r0c0v1.8.jpg	 r	 6.782	 GoodTrial	 allStim	 si
10	 3	 1	 right	 LineStimuli//1.5/stimNo90r3c15v1.5.jpg	 l	 1.752	 GoodTrial	 allStim	 si
11	 3	 1	 right	 LineStimuli//1.5/stimNo107r2c19v1.5.jpg	 l	 5.608	 GoodTrial	 allStim	 si
12	 3	 1	 right	 LineStimuli//1.8/stimNo82r7c18v1.8.jpg	 l	 1.797	 GoodTrial	 allStim	 si
13	 3	 0	 x	 LineStimuli//2.3/stimNo144r0c0v2.3.jpg	 r	 4.566	 GoodTrial	 allStim	 si
14	 3	 1	 right	 LineStimuli//2.8/stimNo101r12c16v2.8.jpg	 l	 1.686	 GoodTrial	 allStim	 si
15	 3	 1	 right	 LineStimuli//3.3/stimNo89r5c21v3.3.jpg	 l	 1.757	 GoodTrial	 allStim	 si
16	 3	 1	 left	 LineStimuli//3.8/stimNo118r4c8v3.8.jpg	 l	 1.727	 GoodTrial	 allStim	 si
17	 3	 1	 right	 LineStimuli//4.3/stimNo120r8c18v4.3.jpg	 l	 1.618	 GoodTrial	 allStim	 si
18	 3	 0	 x	 LineStimuli//4.3/stimNo157r0c0v4.3.jpg	 r	 1.912	 GoodTrial	 allStim	 si
19	 3	 0	 x	 LineStimuli//3.8/stimNo127r0c0v3.8.jpg	 r	 2.182	 GoodTrial	 allStim	 si
20	 3	 1	 left	 LineStimuli//3.3/stimNo103r6c6v3.3.jpg	 l	 1.723	 GoodTrial	 allStim	 si
21	 3	 0	 x	 LineStimuli//2.8/stimNo139r0c0v2.8.jpg	 r	 2.264	 GoodTrial	 allStim	 si
22	 3	 1	 left	 LineStimuli//2.3/stimNo119r3c2v2.3.jpg	 l	 1.904	 GoodTrial	 allStim	 si
23	 3	 0	 x	 LineStimuli//1.8/stimNo131r0c0v1.8.jpg	 r	 6.844	 GoodTrial	 allStim	 si
24	 3	 0	 x	 LineStimuli//1.5/stimNo132r0c0v1.5.jpg	 r	 6.447	 GoodTrial	 allStim	 si
25	 3	 0	 x	 LineStimuli//1.5/stimNo140r0c0v1.5.jpg	 r	 7.104	 GoodTrial	 allStim	 si
26	 3	 0	 x	 LineStimuli//1.8/stimNo158r0c0v1.8.jpg	 r	 6.400	 GoodTrial	 allStim	 si
27	 3	 1	 left	 LineStimuli//2.3/stimNo88r15c2v2.3.jpg	 l	 2.317	 GoodTrial	 allStim	 si
28	 3	 0	 x	 LineStimuli//2.8/stimNo148r0c0v2.8.jpg	 r	 4.532	 GoodTrial	 allStim	 si
29	 3	 0	 x	 LineStimuli//3.3/stimNo123r0c0v3.3.jpg	 r	 2.415	 GoodTrial	 allStim	 si
30	 3	 0	 x	 LineStimuli//3.8/stimNo155r0c0v3.8.jpg	 r	 1.817	 GoodTrial	 allStim	 si
31	 3	 1	 left	 LineStimuli//4.3/stimNo103r10c4v4.3.jpg	 l	 1.702	 GoodTrial	 allStim	 si
32	 3	 1	 right	 LineStimuli//4.3/stimNo92r2c20v4.3.jpg	 l	 2.205	 GoodTrial	 allStim	 si
33	 3	 1	 right	 LineStimuli//3.8/stimNo96r2c13v3.8.jpg	 l	 1.582	 GoodTrial	 allStim	 si
34	 3	 1	 right	 LineStimuli//3.3/stimNo99r6c17v3.3.jpg	 l	 1.598	 GoodTrial	 allStim	 si
35	 3	 0	 x	 LineStimuli//2.8/stimNo158r0c0v2.8.jpg	 r	 3.399	 GoodTrial	 allStim	 si
36	 3	 0	 x	 LineStimuli//2.3/stimNo149r0c0v2.3.jpg	 r	 3.036	 GoodTrial	 allStim	 si
37	 3	 1	 left	 LineStimuli//1.8/stimNo105r6c5v1.8.jpg	 l	 2.550	 GoodTrial	 allStim	 si
38	 3	 1	 right	 LineStimuli//1.5/stimNo98r8c21v1.5.jpg	 l	 1.779	 GoodTrial	 allStim	 si
39	 3	 0	 x	 LineStimuli//1.5/stimNo125r0c0v1.5.jpg	 l	 3.796	 GoodTrial	 allStim	 si
40	 3	 0	 x	 LineStimuli//1.8/stimNo132r0c0v1.8.jpg	 r	 5.770	 GoodTrial	 allStim	 si
41	 3	 1	 left	 LineStimuli//2.3/stimNo113r3c8v2.3.jpg	 l	 1.729	 GoodTrial	 allStim	 si
42	 3	 0	 x	 LineStimuli//2.8/stimNo151r0c0v2.8.jpg	 r	 2.560	 GoodTrial	 allStim	 si
43	 3	 1	 right	 LineStimuli//3.3/stimNo89r5c21v3.3.jpg	 l	 1.729	 GoodTrial	 allStim	 si
44	 3	 0	 x	 LineStimuli//3.8/stimNo134r0c0v3.8.jpg	 r	 2.792	 GoodTrial	 allStim	 si
45	 3	 0	 x	 LineStimuli//4.3/stimNo155r0c0v4.3.jpg	 r	 1.905	 GoodTrial	 allStim	 si
46	 3	 1	 left	 LineStimuli//4.3/stimNo108r5c8v4.3.jpg	 l	 1.835	 GoodTrial	 allStim	 si
47	 3	 0	 x	 LineStimuli//3.8/stimNo140r0c0v3.8.jpg	 r	 1.920	 GoodTrial	 allStim	 si
48	 3	 0	 x	 LineStimuli//3.3/stimNo160r0c0v3.3.jpg	 r	 1.958	 GoodTrial	 allStim	 si
49	 3	 1	 right	 LineStimuli//2.8/stimNo90r13c21v2.8.jpg	 l	 1.860	 GoodTrial	 allStim	 si
50	 3	 0	 x	 LineStimuli//2.3/stimNo134r0c0v2.3.jpg	 r	 2.613	 GoodTrial	 allStim	 si
1	 4	 0	 x	 LineStimuli//3.3/stimNo153r0c0v3.3.jpg	 r	 2.015	 GoodTrial	 allStim	 si
2	 4	 0	 x	 LineStimuli//3.8/stimNo149r0c0v3.8.jpg	 r	 1.665	 GoodTrial	 allStim	 si
3	 4	 0	 x	 LineStimuli//4.3/stimNo139r0c0v4.3.jpg	 r	 1.734	 GoodTrial	 allStim	 si
4	 4	 1	 left	 LineStimuli//4.3/stimNo93r9c9v4.3.jpg	 l	 1.884	 GoodTrial	 allStim	 si
5	 4	 1	 left	 LineStimuli//3.8/stimNo97r15c9v3.8.jpg	 l	 1.763	 GoodTrial	 allStim	 si
6	 4	 1	 left	 LineStimuli//3.3/stimNo106r9c9v3.3.jpg	 l	 1.593	 GoodTrial	 allStim	 si
7	 4	 0	 x	 LineStimuli//2.8/stimNo127r0c0v2.8.jpg	 r	 2.396	 GoodTrial	 allStim	 si
8	 4	 1	 right	 LineStimuli//2.3/stimNo103r11c21v2.3.jpg	 l	 1.850	 GoodTrial	 allStim	 si
9	 4	 1	 right	 LineStimuli//1.8/stimNo109r7c17v1.8.jpg	 l	 1.762	 GoodTrial	 allStim	 si
10	 4	 1	 left	 LineStimuli//1.5/stimNo88r6c7v1.5.jpg	 r	 7.095	 GoodTrial	 allStim	 si
11	 4	 0	 x	 LineStimuli//1.5/stimNo126r0c0v1.5.jpg	 r	 7.737	 GoodTrial	 allStim	 si
12	 4	 1	 right	 LineStimuli//1.8/stimNo90r15c13v1.8.jpg	 l	 2.021	 GoodTrial	 allStim	 si
13	 4	 1	 right	 LineStimuli//2.3/stimNo103r11c21v2.3.jpg	 l	 1.723	 GoodTrial	 allStim	 si
14	 4	 1	 right	 LineStimuli//2.8/stimNo85r4c15v2.8.jpg	 l	 4.204	 GoodTrial	 allStim	 si
15	 4	 0	 x	 LineStimuli//3.3/stimNo153r0c0v3.3.jpg	 r	 2.011	 GoodTrial	 allStim	 si
16	 4	 1	 left	 LineStimuli//3.8/stimNo115r14c10v3.8.jpg	 l	 1.826	 GoodTrial	 allStim	 si
17	 4	 1	 right	 LineStimuli//4.3/stimNo84r15c20v4.3.jpg	 l	 1.731	 GoodTrial	 allStim	 si
18	 4	 1	 right	 LineStimuli//4.3/stimNo82r7c18v4.3.jpg	 l	 1.803	 GoodTrial	 allStim	 si
19	 4	 0	 x	 LineStimuli//3.8/stimNo157r0c0v3.8.jpg	 r	 2.000	 GoodTrial	 allStim	 si
20	 4	 1	 right	 LineStimuli//3.3/stimNo118r3c16v3.3.jpg	 l	 1.622	 GoodTrial	 allStim	 si
21	 4	 0	 x	 LineStimuli//2.8/stimNo141r0c0v2.8.jpg	 r	 1.954	 GoodTrial	 allStim	 si
22	 4	 1	 left	 LineStimuli//2.3/stimNo106r9c9v2.3.jpg	 l	 2.626	 GoodTrial	 allStim	 si
23	 4	 0	 x	 LineStimuli//1.8/stimNo125r0c0v1.8.jpg	 r	 2.512	 GoodTrial	 allStim	 si
24	 4	 1	 right	 LineStimuli//1.5/stimNo82r11c15v1.5.jpg	 l	 1.660	 GoodTrial	 allStim	 si
25	 4	 0	 x	 LineStimuli//1.5/stimNo130r0c0v1.5.jpg	 r	 3.875	 GoodTrial	 allStim	 si
26	 4	 1	 left	 LineStimuli//1.8/stimNo81r6c8v1.8.jpg	 l	 1.829	 GoodTrial	 allStim	 si
27	 4	 0	 x	 LineStimuli//2.3/stimNo149r0c0v2.3.jpg	 r	 2.461	 GoodTrial	 allStim	 si
28	 4	 0	 x	 LineStimuli//2.8/stimNo128r0c0v2.8.jpg	 r	 1.910	 GoodTrial	 allStim	 si
29	 4	 0	 x	 LineStimuli//3.3/stimNo159r0c0v3.3.jpg	 r	 2.131	 GoodTrial	 allStim	 si
30	 4	 0	 x	 LineStimuli//3.8/stimNo138r0c0v3.8.jpg	 r	 1.927	 GoodTrial	 allStim	 si
31	 4	 1	 left	 LineStimuli//4.3/stimNo113r11c7v4.3.jpg	 l	 1.678	 GoodTrial	 allStim	 si
32	 4	 0	 x	 LineStimuli//4.3/stimNo123r0c0v4.3.jpg	 r	 1.971	 GoodTrial	 allStim	 si
33	 4	 1	 left	 LineStimuli//3.8/stimNo86r7c7v3.8.jpg	 l	 1.606	 GoodTrial	 allStim	 si
34	 4	 0	 x	 LineStimuli//3.3/stimNo149r0c0v3.3.jpg	 r	 1.588	 GoodTrial	 allStim	 si
35	 4	 1	 right	 LineStimuli//2.8/stimNo115r9c14v2.8.jpg	 l	 1.688	 GoodTrial	 allStim	 si
36	 4	 1	 right	 LineStimuli//2.3/stimNo99r2c13v2.3.jpg	 l	 1.741	 GoodTrial	 allStim	 si
37	 4	 1	 right	 LineStimuli//1.8/stimNo90r15c13v1.8.jpg	 l	 1.926	 GoodTrial	 allStim	 si
38	 4	 0	 x	 LineStimuli//1.5/stimNo128r0c0v1.5.jpg	 r	 4.120	 GoodTrial	 allStim	 si
39	 4	 0	 x	 LineStimuli//1.5/stimNo159r0c0v1.5.jpg	 r	 3.094	 GoodTrial	 allStim	 si
40	 4	 1	 right	 LineStimuli//1.8/stimNo119r3c21v1.8.jpg	 l	 1.797	 GoodTrial	 allStim	 si
41	 4	 0	 x	 LineStimuli//2.3/stimNo126r0c0v2.3.jpg	 r	 2.310	 GoodTrial	 allStim	 si
42	 4	 1	 left	 LineStimuli//2.8/stimNo98r15c2v2.8.jpg	 l	 2.061	 GoodTrial	 allStim	 si
43	 4	 0	 x	 LineStimuli//3.3/stimNo157r0c0v3.3.jpg	 r	 2.643	 GoodTrial	 allStim	 si
44	 4	 0	 x	 LineStimuli//3.8/stimNo160r0c0v3.8.jpg	 r	 1.837	 GoodTrial	 allStim	 si
45	 4	 0	 x	 LineStimuli//4.3/stimNo157r0c0v4.3.jpg	 r	 2.010	 GoodTrial	 allStim	 si
46	 4	 1	 left	 LineStimuli//4.3/stimNo107r2c8v4.3.jpg	 l	 1.842	 GoodTrial	 allStim	 si
47	 4	 0	 x	 LineStimuli//3.8/stimNo155r0c0v3.8.jpg	 r	 1.677	 GoodTrial	 allStim	 si
48	 4	 0	 x	 LineStimuli//3.3/stimNo140r0c0v3.3.jpg	 r	 1.608	 GoodTrial	 allStim	 si
49	 4	 0	 x	 LineStimuli//2.8/stimNo127r0c0v2.8.jpg	 r	 1.941	 GoodTrial	 allStim	 si
50	 4	 1	 left	 LineStimuli//2.3/stimNo100r8c6v2.3.jpg	 l	 1.759	 GoodTrial	 allStim	 si
1	 5	 1	 right	 LineStimuli//3.3/stimNo113r13c15v3.3.jpg	 l	 1.691	 GoodTrial	 allStim	 si
2	 5	 1	 left	 LineStimuli//3.8/stimNo86r7c7v3.8.jpg	 l	 1.664	 GoodTrial	 allStim	 si
3	 5	 1	 left	 LineStimuli//4.3/stimNo85r3c5v4.3.jpg	 l	 1.636	 GoodTrial	 allStim	 si
4	 5	 1	 right	 LineStimuli//4.3/stimNo82r7c18v4.3.jpg	 l	 1.699	 GoodTrial	 allStim	 si
5	 5	 0	 x	 LineStimuli//3.8/stimNo158r0c0v3.8.jpg	 r	 3.079	 GoodTrial	 allStim	 si
6	 5	 0	 x	 LineStimuli//3.3/stimNo160r0c0v3.3.jpg	 r	 2.126	 GoodTrial	 allStim	 si
7	 5	 0	 x	 LineStimuli//2.8/stimNo127r0c0v2.8.jpg	 r	 1.726	 GoodTrial	 allStim	 si
8	 5	 0	 x	 LineStimuli//2.3/stimNo145r0c0v2.3.jpg	 r	 1.710	 GoodTrial	 allStim	 si
9	 5	 0	 x	 LineStimuli//1.8/stimNo160r0c0v1.8.jpg	 r	 2.988	 GoodTrial	 allStim	 si
10	 5	 0	 x	 LineStimuli//1.5/stimNo129r0c0v1.5.jpg	 r	 6.206	 GoodTrial	 allStim	 si
11	 5	 1	 left	 LineStimuli//1.5/stimNo94r10c6v1.5.jpg	 l	 2.123	 GoodTrial	 allStim	 si
12	 5	 1	 right	 LineStimuli//1.8/stimNo84r11c21v1.8.jpg	 l	 2.191	 GoodTrial	 allStim	 si
13	 5	 1	 right	 LineStimuli//2.3/stimNo98r12c21v2.3.jpg	 l	 1.853	 GoodTrial	 allStim	 si
14	 5	 1	 right	 LineStimuli//2.8/stimNo117r11c17v2.8.jpg	 l	 1.635	 GoodTrial	 allStim	 si
15	 5	 0	 x	 LineStimuli//3.3/stimNo132r0c0v3.3.jpg	 r	 1.928	 GoodTrial	 allStim	 si
16	 5	 0	 x	 LineStimuli//3.8/stimNo156r0c0v3.8.jpg	 r	 1.746	 GoodTrial	 allStim	 si
17	 5	 0	 x	 LineStimuli//4.3/stimNo121r0c0v4.3.jpg	 r	 2.629	 GoodTrial	 allStim	 si
18	 5	 0	 x	 LineStimuli//4.3/stimNo142r0c0v4.3.jpg	 r	 1.726	 GoodTrial	 allStim	 si
19	 5	 0	 x	 LineStimuli//3.8/stimNo155r0c0v3.8.jpg	 r	 1.652	 GoodTrial	 allStim	 si
20	 5	 0	 x	 LineStimuli//3.3/stimNo157r0c0v3.3.jpg	 r	 1.517	 GoodTrial	 allStim	 si
21	 5	 1	 left	 LineStimuli//2.8/stimNo97r11c4v2.8.jpg	 l	 1.743	 GoodTrial	 allStim	 si
22	 5	 1	 left	 LineStimuli//2.3/stimNo95r13c9v2.3.jpg	 l	 1.949	 GoodTrial	 allStim	 si
23	 5	 1	 right	 LineStimuli//1.8/stimNo99r12c16v1.8.jpg	 l	 1.682	 GoodTrial	 allStim	 si
24	 5	 0	 x	 LineStimuli//1.5/stimNo150r0c0v1.5.jpg	 r	 4.458	 GoodTrial	 allStim	 si
25	 5	 0	 x	 LineStimuli//1.5/stimNo151r0c0v1.5.jpg	 r	 4.179	 GoodTrial	 allStim	 si
26	 5	 0	 x	 LineStimuli//1.8/stimNo149r0c0v1.8.jpg	 r	 3.854	 GoodTrial	 allStim	 si
27	 5	 0	 x	 LineStimuli//2.3/stimNo132r0c0v2.3.jpg	 r	 1.985	 GoodTrial	 allStim	 si
28	 5	 0	 x	 LineStimuli//2.8/stimNo158r0c0v2.8.jpg	 r	 1.710	 GoodTrial	 allStim	 si
29	 5	 0	 x	 LineStimuli//3.3/stimNo143r0c0v3.3.jpg	 r	 1.563	 GoodTrial	 allStim	 si
30	 5	 0	 x	 LineStimuli//3.8/stimNo146r0c0v3.8.jpg	 r	 1.817	 GoodTrial	 allStim	 si
31	 5	 1	 right	 LineStimuli//4.3/stimNo96r4c19v4.3.jpg	 l	 1.606	 GoodTrial	 allStim	 si
32	 5	 0	 x	 LineStimuli//4.3/stimNo132r0c0v4.3.jpg	 r	 1.817	 GoodTrial	 allStim	 si
33	 5	 1	 right	 LineStimuli//3.8/stimNo87r6c13v3.8.jpg	 l	 1.614	 GoodTrial	 allStim	 si
34	 5	 0	 x	 LineStimuli//3.3/stimNo139r0c0v3.3.jpg	 r	 1.839	 GoodTrial	 allStim	 si
35	 5	 1	 right	 LineStimuli//2.8/stimNo93r9c20v2.8.jpg	 l	 1.657	 GoodTrial	 allStim	 si
36	 5	 1	 left	 LineStimuli//2.3/stimNo112r3c2v2.3.jpg	 l	 1.764	 GoodTrial	 allStim	 si
37	 5	 1	 left	 LineStimuli//1.8/stimNo106r13c9v1.8.jpg	 l	 1.843	 GoodTrial	 allStim	 si
38	 5	 0	 x	 LineStimuli//1.5/stimNo151r0c0v1.5.jpg	 l	 7.097	 GoodTrial	 allStim	 si
39	 5	 1	 left	 LineStimuli//1.5/stimNo88r6c7v1.5.jpg	 r	 3.221	 GoodTrial	 allStim	 si
40	 5	 0	 x	 LineStimuli//1.8/stimNo126r0c0v1.8.jpg	 r	 8.941	 GoodTrial	 allStim	 si
41	 5	 1	 left	 LineStimuli//2.3/stimNo86r8c9v2.3.jpg	 l	 3.053	 GoodTrial	 allStim	 si
42	 5	 0	 x	 LineStimuli//2.8/stimNo127r0c0v2.8.jpg	 r	 2.604	 GoodTrial	 allStim	 si
43	 5	 1	 left	 LineStimuli//3.3/stimNo81r15c8v3.3.jpg	 r	 2.100	 GoodTrial	 allStim	 si
44	 5	 1	 right	 LineStimuli//3.8/stimNo87r6c13v3.8.jpg	 l	 1.709	 GoodTrial	 allStim	 si
45	 5	 0	 x	 LineStimuli//4.3/stimNo122r0c0v4.3.jpg	 r	 2.423	 GoodTrial	 allStim	 si
46	 5	 0	 x	 LineStimuli//4.3/stimNo126r0c0v4.3.jpg	 r	 2.188	 GoodTrial	 allStim	 si
47	 5	 1	 right	 LineStimuli//3.8/stimNo81r3c21v3.8.jpg	 l	 1.728	 GoodTrial	 allStim	 si
48	 5	 0	 x	 LineStimuli//3.3/stimNo123r0c0v3.3.jpg	 r	 2.102	 GoodTrial	 allStim	 si
49	 5	 0	 x	 LineStimuli//2.8/stimNo123r0c0v2.8.jpg	 r	 3.154	 GoodTrial	 allStim	 si
50	 5	 0	 x	 LineStimuli//2.3/stimNo134r0c0v2.3.jpg	 r	 3.154	 GoodTrial	 allStim	 si
1	 6	 1	 left	 LineStimuli//3.3/stimNo85r6c4v3.3.jpg	 l	 1.779	 GoodTrial	 allStim	 si
2	 6	 0	 x	 LineStimuli//3.8/stimNo145r0c0v3.8.jpg	 r	 1.968	 GoodTrial	 allStim	 si
3	 6	 0	 x	 LineStimuli//4.3/stimNo156r0c0v4.3.jpg	 r	 1.952	 GoodTrial	 allStim	 si
4	 6	 0	 x	 LineStimuli//4.3/stimNo140r0c0v4.3.jpg	 r	 3.039	 GoodTrial	 allStim	 si
5	 6	 1	 left	 LineStimuli//3.8/stimNo103r11c7v3.8.jpg	 l	 1.969	 GoodTrial	 allStim	 si
6	 6	 1	 left	 LineStimuli//3.3/stimNo106r9c9v3.3.jpg	 l	 2.254	 GoodTrial	 allStim	 si
7	 6	 0	 x	 LineStimuli//2.8/stimNo148r0c0v2.8.jpg	 r	 3.625	 GoodTrial	 allStim	 si
8	 6	 0	 x	 LineStimuli//2.3/stimNo140r0c0v2.3.jpg	 r	 3.522	 GoodTrial	 allStim	 si
9	 6	 0	 x	 LineStimuli//1.8/stimNo138r0c0v1.8.jpg	 r	 4.997	 GoodTrial	 allStim	 si
10	 6	 0	 x	 LineStimuli//1.5/stimNo133r0c0v1.5.jpg	 r	 3.885	 GoodTrial	 allStim	 si
11	 6	 1	 left	 LineStimuli//1.5/stimNo106r3c7v1.5.jpg	 l	 3.058	 GoodTrial	 allStim	 si
12	 6	 1	 right	 LineStimuli//1.8/stimNo84r11c21v1.8.jpg	 l	 2.444	 GoodTrial	 allStim	 si
13	 6	 1	 right	 LineStimuli//2.3/stimNo84r15c14v2.3.jpg	 l	 1.662	 GoodTrial	 allStim	 si
14	 6	 0	 x	 LineStimuli//2.8/stimNo140r0c0v2.8.jpg	 r	 2.576	 GoodTrial	 allStim	 si
15	 6	 0	 x	 LineStimuli//3.3/stimNo151r0c0v3.3.jpg	 r	 3.848	 GoodTrial	 allStim	 si
16	 6	 1	 left	 LineStimuli//3.8/stimNo113r14c9v3.8.jpg	 l	 1.581	 GoodTrial	 allStim	 si
17	 6	 0	 x	 LineStimuli//4.3/stimNo141r0c0v4.3.jpg	 r	 1.813	 GoodTrial	 allStim	 si
18	 6	 0	 x	 LineStimuli//4.3/stimNo137r0c0v4.3.jpg	 r	 1.757	 GoodTrial	 allStim	 si
19	 6	 0	 x	 LineStimuli//3.8/stimNo137r0c0v3.8.jpg	 r	 1.751	 GoodTrial	 allStim	 si
20	 6	 0	 x	 LineStimuli//3.3/stimNo142r0c0v3.3.jpg	 r	 2.501	 GoodTrial	 allStim	 si
21	 6	 1	 left	 LineStimuli//2.8/stimNo82r4c6v2.8.jpg	 r	 3.008	 GoodTrial	 allStim	 si
22	 6	 0	 x	 LineStimuli//2.3/stimNo160r0c0v2.3.jpg	 r	 3.277	 GoodTrial	 allStim	 si
23	 6	 0	 x	 LineStimuli//1.8/stimNo158r0c0v1.8.jpg	 r	 7.040	 GoodTrial	 allStim	 si
24	 6	 1	 left	 LineStimuli//1.5/stimNo96r15c4v1.5.jpg	 r	 8.939	 GoodTrial	 allStim	 si
25	 6	 0	 x	 LineStimuli//1.5/stimNo125r0c0v1.5.jpg	 r	 8.327	 GoodTrial	 allStim	 si
26	 6	 1	 right	 LineStimuli//1.8/stimNo112r6c15v1.8.jpg	 l	 1.844	 GoodTrial	 allStim	 si
27	 6	 0	 x	 LineStimuli//2.3/stimNo152r0c0v2.3.jpg	 r	 2.433	 GoodTrial	 allStim	 si
28	 6	 0	 x	 LineStimuli//2.8/stimNo123r0c0v2.8.jpg	 r	 1.757	 GoodTrial	 allStim	 si
29	 6	 1	 left	 LineStimuli//3.3/stimNo100r3c3v3.3.jpg	 l	 1.742	 GoodTrial	 allStim	 si
30	 6	 0	 x	 LineStimuli//3.8/stimNo152r0c0v3.8.jpg	 r	 1.780	 GoodTrial	 allStim	 si
31	 6	 0	 x	 LineStimuli//4.3/stimNo132r0c0v4.3.jpg	 r	 1.676	 GoodTrial	 allStim	 si
32	 6	 1	 left	 LineStimuli//4.3/stimNo98r3c8v4.3.jpg	 l	 1.674	 GoodTrial	 allStim	 si
33	 6	 1	 left	 LineStimuli//3.8/stimNo97r15c9v3.8.jpg	 l	 1.989	 GoodTrial	 allStim	 si
34	 6	 0	 x	 LineStimuli//3.3/stimNo136r0c0v3.3.jpg	 r	 1.928	 GoodTrial	 allStim	 si
35	 6	 0	 x	 LineStimuli//2.8/stimNo154r0c0v2.8.jpg	 r	 2.120	 GoodTrial	 allStim	 si
36	 6	 0	 x	 LineStimuli//2.3/stimNo125r0c0v2.3.jpg	 r	 2.515	 GoodTrial	 allStim	 si
37	 6	 0	 x	 LineStimuli//1.8/stimNo149r0c0v1.8.jpg	 r	 9.083	 GoodTrial	 allStim	 si
38	 6	 1	 right	 LineStimuli//1.5/stimNo115r14c18v1.5.jpg	 l	 2.690	 GoodTrial	 allStim	 si
39	 6	 0	 x	 LineStimuli//1.5/stimNo148r0c0v1.5.jpg	 r	 4.936	 GoodTrial	 allStim	 si
40	 6	 0	 x	 LineStimuli//1.8/stimNo156r0c0v1.8.jpg	 r	 6.213	 GoodTrial	 allStim	 si
41	 6	 0	 x	 LineStimuli//2.3/stimNo129r0c0v2.3.jpg	 r	 2.632	 GoodTrial	 allStim	 si
42	 6	 0	 x	 LineStimuli//2.8/stimNo141r0c0v2.8.jpg	 r	 2.452	 GoodTrial	 allStim	 si
43	 6	 0	 x	 LineStimuli//3.3/stimNo136r0c0v3.3.jpg	 r	 1.815	 GoodTrial	 allStim	 si
44	 6	 0	 x	 LineStimuli//3.8/stimNo150r0c0v3.8.jpg	 r	 1.936	 GoodTrial	 allStim	 si
45	 6	 1	 left	 LineStimuli//4.3/stimNo108r5c8v4.3.jpg	 l	 2.567	 GoodTrial	 allStim	 si
46	 6	 1	 left	 LineStimuli//4.3/stimNo111r10c9v4.3.jpg	 l	 1.726	 GoodTrial	 allStim	 si
47	 6	 1	 left	 LineStimuli//3.8/stimNo110r7c9v3.8.jpg	 l	 1.912	 GoodTrial	 allStim	 si
48	 6	 1	 right	 LineStimuli//3.3/stimNo84r6c16v3.3.jpg	 l	 1.686	 GoodTrial	 allStim	 si
49	 6	 0	 x	 LineStimuli//2.8/stimNo159r0c0v2.8.jpg	 r	 3.062	 GoodTrial	 allStim	 si
50	 6	 1	 right	 LineStimuli//2.3/stimNo91r11c20v2.3.jpg	 l	 1.932	 GoodTrial	 allStim	 si
1	 7	 1	 left	 LineStimuli//3.3/stimNo95r15c8v3.3.jpg	 l	 1.795	 GoodTrial	 allStim	 si
2	 7	 0	 x	 LineStimuli//3.8/stimNo125r0c0v3.8.jpg	 r	 1.940	 GoodTrial	 allStim	 si
3	 7	 1	 left	 LineStimuli//4.3/stimNo107r2c8v4.3.jpg	 l	 1.684	 GoodTrial	 allStim	 si
4	 7	 1	 left	 LineStimuli//4.3/stimNo110r6c7v4.3.jpg	 l	 1.592	 GoodTrial	 allStim	 si
5	 7	 0	 x	 LineStimuli//3.8/stimNo155r0c0v3.8.jpg	 r	 1.976	 GoodTrial	 allStim	 si
6	 7	 0	 x	 LineStimuli//3.3/stimNo142r0c0v3.3.jpg	 r	 2.315	 GoodTrial	 allStim	 si
7	 7	 0	 x	 LineStimuli//2.8/stimNo160r0c0v2.8.jpg	 r	 2.429	 GoodTrial	 allStim	 si
8	 7	 1	 right	 LineStimuli//2.3/stimNo89r8c21v2.3.jpg	 l	 1.649	 GoodTrial	 allStim	 si
9	 7	 0	 x	 LineStimuli//1.8/stimNo124r0c0v1.8.jpg	 r	 3.365	 GoodTrial	 allStim	 si
10	 7	 1	 left	 LineStimuli//1.5/stimNo110r7c3v1.5.jpg	 l	 2.056	 GoodTrial	 allStim	 si
11	 7	 0	 x	 LineStimuli//1.5/stimNo143r0c0v1.5.jpg	 r	 5.870	 GoodTrial	 allStim	 si
12	 7	 1	 left	 LineStimuli//1.8/stimNo91r14c4v1.8.jpg	 l	 3.095	 GoodTrial	 allStim	 si
13	 7	 1	 right	 LineStimuli//2.3/stimNo120r4c17v2.3.jpg	 l	 1.733	 GoodTrial	 allStim	 si
14	 7	 0	 x	 LineStimuli//2.8/stimNo133r0c0v2.8.jpg	 r	 2.016	 GoodTrial	 allStim	 si
15	 7	 1	 left	 LineStimuli//3.3/stimNo95r15c8v3.3.jpg	 r	 1.779	 GoodTrial	 allStim	 si
16	 7	 0	 x	 LineStimuli//3.8/stimNo127r0c0v3.8.jpg	 r	 1.914	 GoodTrial	 allStim	 si
17	 7	 0	 x	 LineStimuli//4.3/stimNo131r0c0v4.3.jpg	 r	 1.831	 GoodTrial	 allStim	 si
18	 7	 0	 x	 LineStimuli//4.3/stimNo141r0c0v4.3.jpg	 r	 2.792	 GoodTrial	 allStim	 si
19	 7	 1	 right	 LineStimuli//3.8/stimNo91r10c16v3.8.jpg	 l	 1.691	 GoodTrial	 allStim	 si
20	 7	 0	 x	 LineStimuli//3.3/stimNo137r0c0v3.3.jpg	 r	 2.635	 GoodTrial	 allStim	 si
21	 7	 0	 x	 LineStimuli//2.8/stimNo126r0c0v2.8.jpg	 r	 3.110	 GoodTrial	 allStim	 si
22	 7	 1	 right	 LineStimuli//2.3/stimNo109r2c17v2.3.jpg	 l	 1.637	 GoodTrial	 allStim	 si
23	 7	 0	 x	 LineStimuli//1.8/stimNo126r0c0v1.8.jpg	 r	 6.602	 GoodTrial	 allStim	 si
24	 7	 0	 x	 LineStimuli//1.5/stimNo134r0c0v1.5.jpg	 r	 11.045	 GoodTrial	 allStim	 si
25	 7	 0	 x	 LineStimuli//1.5/stimNo158r0c0v1.5.jpg	 r	 4.702	 GoodTrial	 allStim	 si
26	 7	 0	 x	 LineStimuli//1.8/stimNo123r0c0v1.8.jpg	 r	 5.419	 GoodTrial	 allStim	 si
27	 7	 0	 x	 LineStimuli//2.3/stimNo129r0c0v2.3.jpg	 r	 2.536	 GoodTrial	 allStim	 si
28	 7	 0	 x	 LineStimuli//2.8/stimNo121r0c0v2.8.jpg	 r	 3.512	 GoodTrial	 allStim	 si
29	 7	 1	 left	 LineStimuli//3.3/stimNo109r15c7v3.3.jpg	 l	 1.806	 GoodTrial	 allStim	 si
30	 7	 0	 x	 LineStimuli//3.8/stimNo146r0c0v3.8.jpg	 r	 1.882	 GoodTrial	 allStim	 si
31	 7	 0	 x	 LineStimuli//4.3/stimNo140r0c0v4.3.jpg	 r	 2.298	 GoodTrial	 allStim	 si
32	 7	 0	 x	 LineStimuli//4.3/stimNo137r0c0v4.3.jpg	 r	 2.185	 GoodTrial	 allStim	 si
33	 7	 0	 x	 LineStimuli//3.8/stimNo127r0c0v3.8.jpg	 r	 2.379	 GoodTrial	 allStim	 si
34	 7	 0	 x	 LineStimuli//3.3/stimNo153r0c0v3.3.jpg	 r	 2.303	 GoodTrial	 allStim	 si
35	 7	 0	 x	 LineStimuli//2.8/stimNo151r0c0v2.8.jpg	 r	 2.267	 GoodTrial	 allStim	 si
36	 7	 1	 right	 LineStimuli//2.3/stimNo101r8c14v2.3.jpg	 l	 1.759	 GoodTrial	 allStim	 si
37	 7	 0	 x	 LineStimuli//1.8/stimNo133r0c0v1.8.jpg	 r	 3.211	 GoodTrial	 allStim	 si
38	 7	 1	 right	 LineStimuli//1.5/stimNo93r14c18v1.5.jpg	 l	 3.994	 GoodTrial	 allStim	 si
39	 7	 0	 x	 LineStimuli//1.5/stimNo142r0c0v1.5.jpg	 r	 7.507	 GoodTrial	 allStim	 si
40	 7	 0	 x	 LineStimuli//1.8/stimNo148r0c0v1.8.jpg	 r	 3.455	 GoodTrial	 allStim	 si
41	 7	 0	 x	 LineStimuli//2.3/stimNo145r0c0v2.3.jpg	 r	 1.986	 GoodTrial	 allStim	 si
42	 7	 0	 x	 LineStimuli//2.8/stimNo155r0c0v2.8.jpg	 r	 1.713	 GoodTrial	 allStim	 si
43	 7	 1	 right	 LineStimuli//3.3/stimNo120r8c14v3.3.jpg	 l	 1.789	 GoodTrial	 allStim	 si
44	 7	 1	 left	 LineStimuli//3.8/stimNo108r3c6v3.8.jpg	 l	 1.791	 GoodTrial	 allStim	 si
45	 7	 1	 left	 LineStimuli//4.3/stimNo87r3c5v4.3.jpg	 l	 1.784	 GoodTrial	 allStim	 si
46	 7	 0	 x	 LineStimuli//4.3/stimNo150r0c0v4.3.jpg	 r	 2.040	 GoodTrial	 allStim	 si
47	 7	 0	 x	 LineStimuli//3.8/stimNo131r0c0v3.8.jpg	 r	 2.852	 GoodTrial	 allStim	 si
48	 7	 0	 x	 LineStimuli//3.3/stimNo153r0c0v3.3.jpg	 r	 2.336	 GoodTrial	 allStim	 si
49	 7	 1	 right	 LineStimuli//2.8/stimNo115r9c14v2.8.jpg	 l	 1.846	 GoodTrial	 allStim	 si
50	 7	 0	 x	 LineStimuli//2.3/stimNo138r0c0v2.3.jpg	 r	 1.857	 GoodTrial	 allStim	 si
