Trial	Block	Target_pr	Target_side	Name	Key	RT	Message	Block_Type	Condition
1	 1	 0	 x	 LineStimuli//1.5/stimNo142r0c0v1.5.jpg	 r	 24.871	 GoodTrial	 1.5	 bl
2	 1	 1	 right	 LineStimuli//1.5/stimNo118r9c20v1.5.jpg	 l	 10.244	 GoodTrial	 1.5	 bl
3	 1	 0	 x	 LineStimuli//1.5/stimNo144r0c0v1.5.jpg	 r	 19.345	 GoodTrial	 1.5	 bl
4	 1	 1	 left	 LineStimuli//1.5/stimNo110r7c3v1.5.jpg	 l	 17.953	 GoodTrial	 1.5	 bl
5	 1	 1	 left	 LineStimuli//1.5/stimNo99r10c3v1.5.jpg	 r	 28.570	 GoodTrial	 1.5	 bl
6	 1	 1	 right	 LineStimuli//1.5/stimNo90r3c15v1.5.jpg	 r	 19.631	 GoodTrial	 1.5	 bl
7	 1	 1	 left	 LineStimuli//1.5/stimNo109r8c6v1.5.jpg	 l	 22.415	 GoodTrial	 1.5	 bl
8	 1	 0	 x	 LineStimuli//1.5/stimNo137r0c0v1.5.jpg	 l	 10.192	 GoodTrial	 1.5	 bl
9	 1	 0	 x	 LineStimuli//1.5/stimNo133r0c0v1.5.jpg	 l	 20.881	 GoodTrial	 1.5	 bl
10	 1	 0	 x	 LineStimuli//1.5/stimNo125r0c0v1.5.jpg	 l	 13.463	 GoodTrial	 1.5	 bl
11	 1	 1	 left	 LineStimuli//1.5/stimNo83r12c7v1.5.jpg	 l	 13.884	 GoodTrial	 1.5	 bl
12	 1	 1	 right	 LineStimuli//1.5/stimNo81r6c17v1.5.jpg	 l	 16.453	 GoodTrial	 1.5	 bl
13	 1	 0	 x	 LineStimuli//1.5/stimNo145r0c0v1.5.jpg	 r	 31.745	 GoodTrial	 1.5	 bl
14	 1	 0	 x	 LineStimuli//1.5/stimNo134r0c0v1.5.jpg	 r	 29.474	 GoodTrial	 1.5	 bl
15	 1	 0	 x	 LineStimuli//1.5/stimNo135r0c0v1.5.jpg	 r	 35.333	 GoodTrial	 1.5	 bl
16	 1	 0	 x	 LineStimuli//1.5/stimNo136r0c0v1.5.jpg	 r	 26.111	 GoodTrial	 1.5	 bl
17	 1	 1	 right	 LineStimuli//1.5/stimNo100r6c20v1.5.jpg	 r	 31.462	 GoodTrial	 1.5	 bl
18	 1	 0	 x	 LineStimuli//1.5/stimNo138r0c0v1.5.jpg	 r	 38.231	 GoodTrial	 1.5	 bl
19	 1	 0	 x	 LineStimuli//1.5/stimNo156r0c0v1.5.jpg	 l	 24.625	 GoodTrial	 1.5	 bl
20	 1	 0	 x	 LineStimuli//1.5/stimNo159r0c0v1.5.jpg	 r	 39.960	 GoodTrial	 1.5	 bl
21	 1	 0	 x	 LineStimuli//1.5/stimNo146r0c0v1.5.jpg	 l	 31.224	 GoodTrial	 1.5	 bl
22	 1	 1	 right	 LineStimuli//1.5/stimNo92r6c18v1.5.jpg	 l	 8.722	 GoodTrial	 1.5	 bl
23	 1	 1	 left	 LineStimuli//1.5/stimNo120r14c2v1.5.jpg	 r	 27.951	 GoodTrial	 1.5	 bl
24	 1	 1	 left	 LineStimuli//1.5/stimNo91r9c3v1.5.jpg	 l	 25.816	 GoodTrial	 1.5	 bl
25	 1	 1	 left	 LineStimuli//1.5/stimNo96r15c4v1.5.jpg	 l	 28.160	 GoodTrial	 1.5	 bl
26	 1	 0	 x	 LineStimuli//1.5/stimNo124r0c0v1.5.jpg	 l	 13.472	 GoodTrial	 1.5	 bl
27	 1	 0	 x	 LineStimuli//1.5/stimNo148r0c0v1.5.jpg	 l	 27.007	 GoodTrial	 1.5	 bl
28	 1	 1	 left	 LineStimuli//1.5/stimNo114r4c4v1.5.jpg	 l	 4.964	 GoodTrial	 1.5	 bl
29	 1	 1	 right	 LineStimuli//1.5/stimNo103r13c17v1.5.jpg	 l	 9.217	 GoodTrial	 1.5	 bl
30	 1	 0	 x	 LineStimuli//1.5/stimNo127r0c0v1.5.jpg	 l	 5.996	 GoodTrial	 1.5	 bl
31	 1	 1	 left	 LineStimuli//1.5/stimNo85r2c5v1.5.jpg	 x	 19.610	 GoodTrial	 1.5	 bl
32	 1	 0	 x	 LineStimuli//1.5/stimNo160r0c0v1.5.jpg	 l	 17.280	 GoodTrial	 1.5	 bl
33	 1	 1	 right	 LineStimuli//1.5/stimNo105r3c18v1.5.jpg	 r	 23.042	 GoodTrial	 1.5	 bl
34	 1	 1	 right	 LineStimuli//1.5/stimNo108r13c15v1.5.jpg	 l	 19.129	 GoodTrial	 1.5	 bl
35	 1	 0	 x	 LineStimuli//1.5/stimNo131r0c0v1.5.jpg	 r	 33.280	 GoodTrial	 1.5	 bl
36	 1	 0	 x	 LineStimuli//1.5/stimNo123r0c0v1.5.jpg	 l	 17.805	 GoodTrial	 1.5	 bl
37	 1	 0	 x	 LineStimuli//1.5/stimNo151r0c0v1.5.jpg	 l	 18.296	 GoodTrial	 1.5	 bl
38	 1	 0	 x	 LineStimuli//1.5/stimNo149r0c0v1.5.jpg	 r	 33.956	 GoodTrial	 1.5	 bl
39	 1	 1	 right	 LineStimuli//1.5/stimNo111r7c17v1.5.jpg	 l	 20.448	 GoodTrial	 1.5	 bl
40	 1	 1	 left	 LineStimuli//1.5/stimNo97r15c6v1.5.jpg	 l	 44.945	 GoodTrial	 1.5	 bl
41	 1	 1	 right	 LineStimuli//1.5/stimNo95r6c14v1.5.jpg	 l	 17.971	 GoodTrial	 1.5	 bl
42	 1	 0	 x	 LineStimuli//1.5/stimNo122r0c0v1.5.jpg	 r	 51.157	 GoodTrial	 1.5	 bl
43	 1	 0	 x	 LineStimuli//1.5/stimNo152r0c0v1.5.jpg	 l	 24.137	 GoodTrial	 1.5	 bl
44	 1	 1	 right	 LineStimuli//1.5/stimNo101r5c20v1.5.jpg	 l	 13.599	 GoodTrial	 1.5	 bl
45	 1	 0	 x	 LineStimuli//1.5/stimNo129r0c0v1.5.jpg	 r	 44.792	 GoodTrial	 1.5	 bl
46	 1	 1	 right	 LineStimuli//1.5/stimNo86r6c16v1.5.jpg	 r	 58.328	 GoodTrial	 1.5	 bl
47	 1	 0	 x	 LineStimuli//1.5/stimNo158r0c0v1.5.jpg	 l	 19.968	 GoodTrial	 1.5	 bl
48	 1	 1	 left	 LineStimuli//1.5/stimNo113r4c4v1.5.jpg	 l	 52.367	 GoodTrial	 1.5	 bl
49	 1	 0	 x	 LineStimuli//1.5/stimNo140r0c0v1.5.jpg	 l	 23.099	 GoodTrial	 1.5	 bl
50	 1	 1	 left	 LineStimuli//1.5/stimNo112r9c5v1.5.jpg	 r	 38.889	 GoodTrial	 1.5	 bl
1	 2	 0	 x	 LineStimuli//1.8/stimNo156r0c0v1.8.jpg	 r	 27.285	 GoodTrial	 1.8	 bl
2	 2	 0	 x	 LineStimuli//1.8/stimNo151r0c0v1.8.jpg	 r	 28.795	 GoodTrial	 1.8	 bl
3	 2	 1	 right	 LineStimuli//1.8/stimNo92r10c18v1.8.jpg	 l	 17.827	 GoodTrial	 1.8	 bl
4	 2	 0	 x	 LineStimuli//1.8/stimNo149r0c0v1.8.jpg	 r	 30.958	 GoodTrial	 1.8	 bl
5	 2	 1	 left	 LineStimuli//1.8/stimNo89r11c6v1.8.jpg	 l	 18.315	 GoodTrial	 1.8	 bl
6	 2	 0	 x	 LineStimuli//1.8/stimNo153r0c0v1.8.jpg	 r	 22.698	 GoodTrial	 1.8	 bl
7	 2	 1	 left	 LineStimuli//1.8/stimNo96r13c2v1.8.jpg	 r	 35.004	 GoodTrial	 1.8	 bl
8	 2	 1	 right	 LineStimuli//1.8/stimNo109r7c17v1.8.jpg	 l	 18.936	 GoodTrial	 1.8	 bl
9	 2	 0	 x	 LineStimuli//1.8/stimNo146r0c0v1.8.jpg	 r	 36.127	 GoodTrial	 1.8	 bl
10	 2	 1	 left	 LineStimuli//1.8/stimNo85r13c2v1.8.jpg	 l	 21.900	 GoodTrial	 1.8	 bl
11	 2	 1	 left	 LineStimuli//1.8/stimNo87r14c2v1.8.jpg	 l	 33.151	 GoodTrial	 1.8	 bl
12	 2	 1	 right	 LineStimuli//1.8/stimNo84r11c21v1.8.jpg	 l	 24.822	 GoodTrial	 1.8	 bl
13	 2	 1	 left	 LineStimuli//1.8/stimNo116r4c7v1.8.jpg	 l	 9.344	 GoodTrial	 1.8	 bl
14	 2	 0	 x	 LineStimuli//1.8/stimNo142r0c0v1.8.jpg	 l	 26.493	 GoodTrial	 1.8	 bl
15	 2	 0	 x	 LineStimuli//1.8/stimNo157r0c0v1.8.jpg	 r	 37.567	 GoodTrial	 1.8	 bl
16	 2	 0	 x	 LineStimuli//1.8/stimNo128r0c0v1.8.jpg	 r	 27.850	 GoodTrial	 1.8	 bl
17	 2	 1	 right	 LineStimuli//1.8/stimNo83r6c13v1.8.jpg	 r	 28.505	 GoodTrial	 1.8	 bl
18	 2	 1	 right	 LineStimuli//1.8/stimNo102r14c17v1.8.jpg	 l	 25.059	 GoodTrial	 1.8	 bl
19	 2	 0	 x	 LineStimuli//1.8/stimNo150r0c0v1.8.jpg	 r	 30.791	 GoodTrial	 1.8	 bl
20	 2	 1	 right	 LineStimuli//1.8/stimNo99r12c16v1.8.jpg	 l	 13.415	 GoodTrial	 1.8	 bl
21	 2	 0	 x	 LineStimuli//1.8/stimNo158r0c0v1.8.jpg	 r	 23.141	 GoodTrial	 1.8	 bl
22	 2	 1	 left	 LineStimuli//1.8/stimNo107r5c4v1.8.jpg	 l	 9.694	 GoodTrial	 1.8	 bl
23	 2	 1	 right	 LineStimuli//1.8/stimNo108r9c21v1.8.jpg	 l	 14.138	 GoodTrial	 1.8	 bl
24	 2	 0	 x	 LineStimuli//1.8/stimNo159r0c0v1.8.jpg	 r	 29.620	 GoodTrial	 1.8	 bl
25	 2	 0	 x	 LineStimuli//1.8/stimNo141r0c0v1.8.jpg	 r	 23.300	 GoodTrial	 1.8	 bl
26	 2	 0	 x	 LineStimuli//1.8/stimNo125r0c0v1.8.jpg	 r	 21.451	 GoodTrial	 1.8	 bl
27	 2	 0	 x	 LineStimuli//1.8/stimNo121r0c0v1.8.jpg	 r	 22.488	 GoodTrial	 1.8	 bl
28	 2	 0	 x	 LineStimuli//1.8/stimNo148r0c0v1.8.jpg	 r	 22.014	 GoodTrial	 1.8	 bl
29	 2	 0	 x	 LineStimuli//1.8/stimNo155r0c0v1.8.jpg	 r	 23.847	 GoodTrial	 1.8	 bl
30	 2	 0	 x	 LineStimuli//1.8/stimNo127r0c0v1.8.jpg	 r	 25.152	 GoodTrial	 1.8	 bl
31	 2	 0	 x	 LineStimuli//1.8/stimNo135r0c0v1.8.jpg	 r	 24.143	 GoodTrial	 1.8	 bl
32	 2	 1	 right	 LineStimuli//1.8/stimNo119r3c21v1.8.jpg	 l	 6.142	 GoodTrial	 1.8	 bl
33	 2	 1	 right	 LineStimuli//1.8/stimNo114r8c13v1.8.jpg	 l	 13.877	 GoodTrial	 1.8	 bl
34	 2	 1	 left	 LineStimuli//1.8/stimNo115r5c9v1.8.jpg	 l	 7.817	 GoodTrial	 1.8	 bl
35	 2	 0	 x	 LineStimuli//1.8/stimNo134r0c0v1.8.jpg	 r	 20.834	 GoodTrial	 1.8	 bl
36	 2	 1	 right	 LineStimuli//1.8/stimNo111r4c21v1.8.jpg	 l	 7.369	 GoodTrial	 1.8	 bl
37	 2	 0	 x	 LineStimuli//1.8/stimNo140r0c0v1.8.jpg	 l	 5.824	 GoodTrial	 1.8	 bl
38	 2	 0	 x	 LineStimuli//1.8/stimNo130r0c0v1.8.jpg	 r	 23.945	 GoodTrial	 1.8	 bl
39	 2	 0	 x	 LineStimuli//1.8/stimNo126r0c0v1.8.jpg	 r	 20.236	 GoodTrial	 1.8	 bl
40	 2	 1	 right	 LineStimuli//1.8/stimNo118r11c15v1.8.jpg	 l	 13.852	 GoodTrial	 1.8	 bl
41	 2	 1	 left	 LineStimuli//1.8/stimNo98r15c5v1.8.jpg	 l	 18.810	 GoodTrial	 1.8	 bl
42	 2	 0	 x	 LineStimuli//1.8/stimNo143r0c0v1.8.jpg	 r	 18.264	 GoodTrial	 1.8	 bl
43	 2	 1	 right	 LineStimuli//1.8/stimNo100r9c13v1.8.jpg	 l	 10.857	 GoodTrial	 1.8	 bl
44	 2	 0	 x	 LineStimuli//1.8/stimNo152r0c0v1.8.jpg	 r	 21.621	 GoodTrial	 1.8	 bl
45	 2	 1	 right	 LineStimuli//1.8/stimNo101r4c13v1.8.jpg	 l	 7.363	 GoodTrial	 1.8	 bl
46	 2	 0	 x	 LineStimuli//1.8/stimNo147r0c0v1.8.jpg	 r	 23.530	 GoodTrial	 1.8	 bl
47	 2	 0	 x	 LineStimuli//1.8/stimNo131r0c0v1.8.jpg	 r	 20.884	 GoodTrial	 1.8	 bl
48	 2	 1	 right	 LineStimuli//1.8/stimNo82r7c18v1.8.jpg	 r	 20.863	 GoodTrial	 1.8	 bl
49	 2	 0	 x	 LineStimuli//1.8/stimNo129r0c0v1.8.jpg	 r	 22.556	 GoodTrial	 1.8	 bl
50	 2	 0	 x	 LineStimuli//1.8/stimNo139r0c0v1.8.jpg	 r	 21.245	 GoodTrial	 1.8	 bl
1	 3	 1	 left	 LineStimuli//2.3/stimNo115r7c3v2.3.jpg	 l	 10.340	 GoodTrial	 2.3	 bl
2	 3	 0	 x	 LineStimuli//2.3/stimNo123r0c0v2.3.jpg	 r	 15.029	 GoodTrial	 2.3	 bl
3	 3	 1	 right	 LineStimuli//2.3/stimNo111r11c21v2.3.jpg	 l	 10.185	 GoodTrial	 2.3	 bl
4	 3	 0	 x	 LineStimuli//2.3/stimNo144r0c0v2.3.jpg	 r	 13.283	 GoodTrial	 2.3	 bl
5	 3	 0	 x	 LineStimuli//2.3/stimNo142r0c0v2.3.jpg	 r	 10.192	 GoodTrial	 2.3	 bl
6	 3	 1	 left	 LineStimuli//2.3/stimNo88r15c2v2.3.jpg	 l	 9.769	 GoodTrial	 2.3	 bl
7	 3	 0	 x	 LineStimuli//2.3/stimNo145r0c0v2.3.jpg	 r	 16.102	 GoodTrial	 2.3	 bl
8	 3	 0	 x	 LineStimuli//2.3/stimNo147r0c0v2.3.jpg	 r	 15.595	 GoodTrial	 2.3	 bl
9	 3	 0	 x	 LineStimuli//2.3/stimNo130r0c0v2.3.jpg	 r	 13.092	 GoodTrial	 2.3	 bl
10	 3	 0	 x	 LineStimuli//2.3/stimNo137r0c0v2.3.jpg	 r	 10.976	 GoodTrial	 2.3	 bl
11	 3	 1	 right	 LineStimuli//2.3/stimNo109r2c17v2.3.jpg	 l	 2.597	 GoodTrial	 2.3	 bl
12	 3	 0	 x	 LineStimuli//2.3/stimNo151r0c0v2.3.jpg	 r	 13.183	 GoodTrial	 2.3	 bl
13	 3	 0	 x	 LineStimuli//2.3/stimNo141r0c0v2.3.jpg	 r	 10.384	 GoodTrial	 2.3	 bl
14	 3	 1	 right	 LineStimuli//2.3/stimNo105r14c14v2.3.jpg	 l	 8.681	 GoodTrial	 2.3	 bl
15	 3	 0	 x	 LineStimuli//2.3/stimNo146r0c0v2.3.jpg	 r	 10.241	 GoodTrial	 2.3	 bl
16	 3	 0	 x	 LineStimuli//2.3/stimNo152r0c0v2.3.jpg	 r	 11.584	 GoodTrial	 2.3	 bl
17	 3	 1	 left	 LineStimuli//2.3/stimNo97r3c3v2.3.jpg	 r	 12.319	 GoodTrial	 2.3	 bl
18	 3	 0	 x	 LineStimuli//2.3/stimNo148r0c0v2.3.jpg	 r	 14.074	 GoodTrial	 2.3	 bl
19	 3	 1	 left	 LineStimuli//2.3/stimNo117r11c8v2.3.jpg	 l	 9.983	 GoodTrial	 2.3	 bl
20	 3	 0	 x	 LineStimuli//2.3/stimNo143r0c0v2.3.jpg	 r	 12.852	 GoodTrial	 2.3	 bl
21	 3	 1	 left	 LineStimuli//2.3/stimNo96r3c3v2.3.jpg	 l	 13.183	 GoodTrial	 2.3	 bl
22	 3	 1	 left	 LineStimuli//2.3/stimNo106r9c9v2.3.jpg	 l	 4.673	 GoodTrial	 2.3	 bl
23	 3	 1	 right	 LineStimuli//2.3/stimNo90r14c21v2.3.jpg	 l	 5.687	 GoodTrial	 2.3	 bl
24	 3	 0	 x	 LineStimuli//2.3/stimNo121r0c0v2.3.jpg	 r	 8.620	 GoodTrial	 2.3	 bl
25	 3	 0	 x	 LineStimuli//2.3/stimNo156r0c0v2.3.jpg	 r	 8.088	 GoodTrial	 2.3	 bl
26	 3	 0	 x	 LineStimuli//2.3/stimNo134r0c0v2.3.jpg	 r	 7.461	 GoodTrial	 2.3	 bl
27	 3	 0	 x	 LineStimuli//2.3/stimNo127r0c0v2.3.jpg	 r	 6.103	 GoodTrial	 2.3	 bl
28	 3	 0	 x	 LineStimuli//2.3/stimNo126r0c0v2.3.jpg	 r	 6.837	 GoodTrial	 2.3	 bl
29	 3	 0	 x	 LineStimuli//2.3/stimNo150r0c0v2.3.jpg	 r	 6.569	 GoodTrial	 2.3	 bl
30	 3	 0	 x	 LineStimuli//2.3/stimNo149r0c0v2.3.jpg	 r	 7.247	 GoodTrial	 2.3	 bl
31	 3	 1	 right	 LineStimuli//2.3/stimNo92r10c17v2.3.jpg	 l	 2.527	 GoodTrial	 2.3	 bl
32	 3	 1	 left	 LineStimuli//2.3/stimNo95r13c9v2.3.jpg	 l	 2.395	 GoodTrial	 2.3	 bl
33	 3	 0	 x	 LineStimuli//2.3/stimNo138r0c0v2.3.jpg	 r	 8.984	 GoodTrial	 2.3	 bl
34	 3	 0	 x	 LineStimuli//2.3/stimNo160r0c0v2.3.jpg	 r	 8.671	 GoodTrial	 2.3	 bl
35	 3	 1	 left	 LineStimuli//2.3/stimNo108r15c6v2.3.jpg	 l	 3.872	 GoodTrial	 2.3	 bl
36	 3	 1	 right	 LineStimuli//2.3/stimNo107r11c15v2.3.jpg	 l	 3.965	 GoodTrial	 2.3	 bl
37	 3	 0	 x	 LineStimuli//2.3/stimNo132r0c0v2.3.jpg	 r	 4.751	 GoodTrial	 2.3	 bl
38	 3	 1	 left	 LineStimuli//2.3/stimNo119r3c2v2.3.jpg	 l	 2.457	 GoodTrial	 2.3	 bl
39	 3	 1	 right	 LineStimuli//2.3/stimNo101r8c14v2.3.jpg	 l	 2.696	 GoodTrial	 2.3	 bl
40	 3	 0	 x	 LineStimuli//2.3/stimNo131r0c0v2.3.jpg	 r	 4.759	 GoodTrial	 2.3	 bl
41	 3	 1	 right	 LineStimuli//2.3/stimNo89r8c21v2.3.jpg	 l	 1.857	 GoodTrial	 2.3	 bl
42	 3	 0	 x	 LineStimuli//2.3/stimNo157r0c0v2.3.jpg	 r	 5.058	 GoodTrial	 2.3	 bl
43	 3	 1	 right	 LineStimuli//2.3/stimNo87r13c19v2.3.jpg	 l	 2.373	 GoodTrial	 2.3	 bl
44	 3	 0	 x	 LineStimuli//2.3/stimNo135r0c0v2.3.jpg	 r	 6.378	 GoodTrial	 2.3	 bl
45	 3	 1	 left	 LineStimuli//2.3/stimNo104r2c4v2.3.jpg	 l	 2.278	 GoodTrial	 2.3	 bl
46	 3	 0	 x	 LineStimuli//2.3/stimNo122r0c0v2.3.jpg	 r	 5.765	 GoodTrial	 2.3	 bl
47	 3	 1	 left	 LineStimuli//2.3/stimNo86r8c9v2.3.jpg	 l	 2.137	 GoodTrial	 2.3	 bl
48	 3	 0	 x	 LineStimuli//2.3/stimNo158r0c0v2.3.jpg	 r	 4.542	 GoodTrial	 2.3	 bl
49	 3	 1	 right	 LineStimuli//2.3/stimNo120r4c17v2.3.jpg	 l	 1.736	 GoodTrial	 2.3	 bl
50	 3	 1	 left	 LineStimuli//2.3/stimNo82r12c4v2.3.jpg	 l	 2.066	 GoodTrial	 2.3	 bl
1	 4	 1	 right	 LineStimuli//3.3/stimNo96r8c18v3.3.jpg	 l	 1.985	 GoodTrial	 3.3	 bl
2	 4	 1	 left	 LineStimuli//3.3/stimNo86r5c7v3.3.jpg	 l	 1.887	 GoodTrial	 3.3	 bl
3	 4	 0	 x	 LineStimuli//3.3/stimNo121r0c0v3.3.jpg	 r	 4.048	 GoodTrial	 3.3	 bl
4	 4	 1	 right	 LineStimuli//3.3/stimNo87r15c13v3.3.jpg	 l	 1.873	 GoodTrial	 3.3	 bl
5	 4	 0	 x	 LineStimuli//3.3/stimNo127r0c0v3.3.jpg	 r	 3.021	 GoodTrial	 3.3	 bl
6	 4	 1	 right	 LineStimuli//3.3/stimNo98r4c21v3.3.jpg	 l	 1.725	 GoodTrial	 3.3	 bl
7	 4	 1	 right	 LineStimuli//3.3/stimNo107r2c17v3.3.jpg	 l	 1.804	 GoodTrial	 3.3	 bl
8	 4	 1	 left	 LineStimuli//3.3/stimNo110r4c3v3.3.jpg	 l	 1.668	 GoodTrial	 3.3	 bl
9	 4	 0	 x	 LineStimuli//3.3/stimNo145r0c0v3.3.jpg	 r	 2.359	 GoodTrial	 3.3	 bl
10	 4	 0	 x	 LineStimuli//3.3/stimNo143r0c0v3.3.jpg	 r	 2.625	 GoodTrial	 3.3	 bl
11	 4	 0	 x	 LineStimuli//3.3/stimNo128r0c0v3.3.jpg	 r	 2.205	 GoodTrial	 3.3	 bl
12	 4	 0	 x	 LineStimuli//3.3/stimNo157r0c0v3.3.jpg	 r	 2.638	 GoodTrial	 3.3	 bl
13	 4	 1	 left	 LineStimuli//3.3/stimNo90r2c9v3.3.jpg	 l	 1.822	 GoodTrial	 3.3	 bl
14	 4	 1	 left	 LineStimuli//3.3/stimNo100r3c3v3.3.jpg	 l	 1.604	 GoodTrial	 3.3	 bl
15	 4	 1	 right	 LineStimuli//3.3/stimNo118r3c16v3.3.jpg	 l	 1.605	 GoodTrial	 3.3	 bl
16	 4	 1	 left	 LineStimuli//3.3/stimNo81r15c8v3.3.jpg	 l	 1.642	 GoodTrial	 3.3	 bl
17	 4	 1	 left	 LineStimuli//3.3/stimNo94r14c9v3.3.jpg	 l	 1.573	 GoodTrial	 3.3	 bl
18	 4	 1	 left	 LineStimuli//3.3/stimNo83r8c3v3.3.jpg	 l	 1.692	 GoodTrial	 3.3	 bl
19	 4	 1	 right	 LineStimuli//3.3/stimNo101r7c16v3.3.jpg	 l	 1.533	 GoodTrial	 3.3	 bl
20	 4	 1	 right	 LineStimuli//3.3/stimNo97r6c13v3.3.jpg	 l	 2.592	 GoodTrial	 3.3	 bl
21	 4	 0	 x	 LineStimuli//3.3/stimNo152r0c0v3.3.jpg	 r	 2.729	 GoodTrial	 3.3	 bl
22	 4	 1	 left	 LineStimuli//3.3/stimNo108r13c2v3.3.jpg	 l	 1.719	 GoodTrial	 3.3	 bl
23	 4	 1	 left	 LineStimuli//3.3/stimNo115r3c4v3.3.jpg	 l	 1.789	 GoodTrial	 3.3	 bl
24	 4	 1	 right	 LineStimuli//3.3/stimNo113r13c15v3.3.jpg	 l	 1.832	 GoodTrial	 3.3	 bl
25	 4	 1	 left	 LineStimuli//3.3/stimNo103r6c6v3.3.jpg	 l	 1.718	 GoodTrial	 3.3	 bl
26	 4	 0	 x	 LineStimuli//3.3/stimNo124r0c0v3.3.jpg	 r	 2.084	 GoodTrial	 3.3	 bl
27	 4	 0	 x	 LineStimuli//3.3/stimNo133r0c0v3.3.jpg	 r	 2.279	 GoodTrial	 3.3	 bl
28	 4	 0	 x	 LineStimuli//3.3/stimNo144r0c0v3.3.jpg	 r	 2.001	 GoodTrial	 3.3	 bl
29	 4	 0	 x	 LineStimuli//3.3/stimNo159r0c0v3.3.jpg	 r	 2.606	 GoodTrial	 3.3	 bl
30	 4	 0	 x	 LineStimuli//3.3/stimNo160r0c0v3.3.jpg	 r	 2.424	 GoodTrial	 3.3	 bl
31	 4	 1	 right	 LineStimuli//3.3/stimNo88r9c14v3.3.jpg	 l	 2.523	 GoodTrial	 3.3	 bl
32	 4	 0	 x	 LineStimuli//3.3/stimNo139r0c0v3.3.jpg	 r	 2.504	 GoodTrial	 3.3	 bl
33	 4	 0	 x	 LineStimuli//3.3/stimNo154r0c0v3.3.jpg	 r	 2.325	 GoodTrial	 3.3	 bl
34	 4	 0	 x	 LineStimuli//3.3/stimNo147r0c0v3.3.jpg	 r	 2.309	 GoodTrial	 3.3	 bl
35	 4	 0	 x	 LineStimuli//3.3/stimNo150r0c0v3.3.jpg	 r	 2.037	 GoodTrial	 3.3	 bl
36	 4	 1	 right	 LineStimuli//3.3/stimNo116r10c14v3.3.jpg	 l	 1.608	 GoodTrial	 3.3	 bl
37	 4	 1	 right	 LineStimuli//3.3/stimNo82r11c20v3.3.jpg	 l	 1.633	 GoodTrial	 3.3	 bl
38	 4	 1	 left	 LineStimuli//3.3/stimNo92r10c7v3.3.jpg	 l	 1.592	 GoodTrial	 3.3	 bl
39	 4	 0	 x	 LineStimuli//3.3/stimNo123r0c0v3.3.jpg	 r	 2.278	 GoodTrial	 3.3	 bl
40	 4	 1	 left	 LineStimuli//3.3/stimNo93r3c5v3.3.jpg	 l	 1.695	 GoodTrial	 3.3	 bl
41	 4	 1	 left	 LineStimuli//3.3/stimNo104r4c4v3.3.jpg	 l	 1.598	 GoodTrial	 3.3	 bl
42	 4	 0	 x	 LineStimuli//3.3/stimNo137r0c0v3.3.jpg	 r	 1.984	 GoodTrial	 3.3	 bl
43	 4	 0	 x	 LineStimuli//3.3/stimNo141r0c0v3.3.jpg	 r	 2.319	 GoodTrial	 3.3	 bl
44	 4	 0	 x	 LineStimuli//3.3/stimNo158r0c0v3.3.jpg	 r	 2.256	 GoodTrial	 3.3	 bl
45	 4	 1	 left	 LineStimuli//3.3/stimNo117r2c5v3.3.jpg	 l	 1.934	 GoodTrial	 3.3	 bl
46	 4	 1	 right	 LineStimuli//3.3/stimNo112r5c15v3.3.jpg	 l	 1.695	 GoodTrial	 3.3	 bl
47	 4	 1	 right	 LineStimuli//3.3/stimNo99r6c17v3.3.jpg	 l	 1.504	 GoodTrial	 3.3	 bl
48	 4	 0	 x	 LineStimuli//3.3/stimNo142r0c0v3.3.jpg	 r	 1.793	 GoodTrial	 3.3	 bl
49	 4	 0	 x	 LineStimuli//3.3/stimNo140r0c0v3.3.jpg	 r	 1.727	 GoodTrial	 3.3	 bl
50	 4	 0	 x	 LineStimuli//3.3/stimNo149r0c0v3.3.jpg	 r	 1.781	 GoodTrial	 3.3	 bl
1	 5	 0	 x	 LineStimuli//2.8/stimNo155r0c0v2.8.jpg	 r	 1.964	 GoodTrial	 2.8	 bl
2	 5	 1	 right	 LineStimuli//2.8/stimNo115r9c14v2.8.jpg	 l	 1.988	 GoodTrial	 2.8	 bl
3	 5	 1	 left	 LineStimuli//2.8/stimNo105r5c4v2.8.jpg	 l	 1.647	 GoodTrial	 2.8	 bl
4	 5	 1	 left	 LineStimuli//2.8/stimNo83r12c4v2.8.jpg	 l	 1.644	 GoodTrial	 2.8	 bl
5	 5	 0	 x	 LineStimuli//2.8/stimNo133r0c0v2.8.jpg	 r	 1.894	 GoodTrial	 2.8	 bl
6	 5	 1	 left	 LineStimuli//2.8/stimNo84r3c9v2.8.jpg	 l	 1.640	 GoodTrial	 2.8	 bl
7	 5	 0	 x	 LineStimuli//2.8/stimNo156r0c0v2.8.jpg	 r	 1.840	 GoodTrial	 2.8	 bl
8	 5	 1	 left	 LineStimuli//2.8/stimNo98r15c2v2.8.jpg	 l	 1.794	 GoodTrial	 2.8	 bl
9	 5	 1	 left	 LineStimuli//2.8/stimNo107r5c6v2.8.jpg	 l	 1.588	 GoodTrial	 2.8	 bl
10	 5	 1	 left	 LineStimuli//2.8/stimNo104r8c6v2.8.jpg	 l	 1.927	 GoodTrial	 2.8	 bl
11	 5	 0	 x	 LineStimuli//2.8/stimNo137r0c0v2.8.jpg	 r	 2.313	 GoodTrial	 2.8	 bl
12	 5	 1	 left	 LineStimuli//2.8/stimNo113r9c5v2.8.jpg	 l	 1.575	 GoodTrial	 2.8	 bl
13	 5	 0	 x	 LineStimuli//2.8/stimNo159r0c0v2.8.jpg	 r	 2.498	 GoodTrial	 2.8	 bl
14	 5	 0	 x	 LineStimuli//2.8/stimNo135r0c0v2.8.jpg	 r	 2.192	 GoodTrial	 2.8	 bl
15	 5	 1	 right	 LineStimuli//2.8/stimNo101r12c16v2.8.jpg	 l	 1.720	 GoodTrial	 2.8	 bl
16	 5	 0	 x	 LineStimuli//2.8/stimNo140r0c0v2.8.jpg	 r	 2.313	 GoodTrial	 2.8	 bl
17	 5	 1	 left	 LineStimuli//2.8/stimNo89r12c4v2.8.jpg	 l	 1.638	 GoodTrial	 2.8	 bl
18	 5	 0	 x	 LineStimuli//2.8/stimNo128r0c0v2.8.jpg	 r	 2.236	 GoodTrial	 2.8	 bl
19	 5	 1	 right	 LineStimuli//2.8/stimNo114r8c19v2.8.jpg	 l	 1.635	 GoodTrial	 2.8	 bl
20	 5	 1	 left	 LineStimuli//2.8/stimNo97r11c4v2.8.jpg	 l	 1.920	 GoodTrial	 2.8	 bl
21	 5	 0	 x	 LineStimuli//2.8/stimNo154r0c0v2.8.jpg	 r	 1.926	 GoodTrial	 2.8	 bl
22	 5	 0	 x	 LineStimuli//2.8/stimNo145r0c0v2.8.jpg	 r	 2.000	 GoodTrial	 2.8	 bl
23	 5	 0	 x	 LineStimuli//2.8/stimNo152r0c0v2.8.jpg	 r	 2.289	 GoodTrial	 2.8	 bl
24	 5	 0	 x	 LineStimuli//2.8/stimNo143r0c0v2.8.jpg	 r	 2.256	 GoodTrial	 2.8	 bl
25	 5	 1	 right	 LineStimuli//2.8/stimNo95r9c18v2.8.jpg	 l	 1.588	 GoodTrial	 2.8	 bl
26	 5	 0	 x	 LineStimuli//2.8/stimNo134r0c0v2.8.jpg	 r	 1.703	 GoodTrial	 2.8	 bl
27	 5	 1	 left	 LineStimuli//2.8/stimNo96r6c9v2.8.jpg	 l	 1.860	 GoodTrial	 2.8	 bl
28	 5	 0	 x	 LineStimuli//2.8/stimNo142r0c0v2.8.jpg	 r	 1.816	 GoodTrial	 2.8	 bl
29	 5	 1	 right	 LineStimuli//2.8/stimNo81r8c14v2.8.jpg	 l	 1.693	 GoodTrial	 2.8	 bl
30	 5	 0	 x	 LineStimuli//2.8/stimNo127r0c0v2.8.jpg	 r	 1.880	 GoodTrial	 2.8	 bl
31	 5	 0	 x	 LineStimuli//2.8/stimNo139r0c0v2.8.jpg	 r	 1.743	 GoodTrial	 2.8	 bl
32	 5	 1	 left	 LineStimuli//2.8/stimNo102r3c2v2.8.jpg	 l	 1.819	 GoodTrial	 2.8	 bl
33	 5	 0	 x	 LineStimuli//2.8/stimNo141r0c0v2.8.jpg	 r	 1.924	 GoodTrial	 2.8	 bl
34	 5	 0	 x	 LineStimuli//2.8/stimNo132r0c0v2.8.jpg	 r	 2.246	 GoodTrial	 2.8	 bl
35	 5	 0	 x	 LineStimuli//2.8/stimNo150r0c0v2.8.jpg	 r	 1.714	 GoodTrial	 2.8	 bl
36	 5	 1	 left	 LineStimuli//2.8/stimNo116r4c7v2.8.jpg	 l	 1.855	 GoodTrial	 2.8	 bl
37	 5	 1	 right	 LineStimuli//2.8/stimNo103r3c19v2.8.jpg	 l	 1.788	 GoodTrial	 2.8	 bl
38	 5	 0	 x	 LineStimuli//2.8/stimNo122r0c0v2.8.jpg	 r	 1.791	 GoodTrial	 2.8	 bl
39	 5	 0	 x	 LineStimuli//2.8/stimNo126r0c0v2.8.jpg	 r	 1.848	 GoodTrial	 2.8	 bl
40	 5	 0	 x	 LineStimuli//2.8/stimNo138r0c0v2.8.jpg	 r	 2.166	 GoodTrial	 2.8	 bl
41	 5	 1	 left	 LineStimuli//2.8/stimNo82r4c6v2.8.jpg	 l	 1.712	 GoodTrial	 2.8	 bl
42	 5	 1	 right	 LineStimuli//2.8/stimNo120r8c20v2.8.jpg	 l	 1.519	 GoodTrial	 2.8	 bl
43	 5	 1	 right	 LineStimuli//2.8/stimNo93r9c20v2.8.jpg	 l	 1.564	 GoodTrial	 2.8	 bl
44	 5	 1	 left	 LineStimuli//2.8/stimNo86r15c6v2.8.jpg	 l	 1.779	 GoodTrial	 2.8	 bl
45	 5	 1	 right	 LineStimuli//2.8/stimNo99r9c18v2.8.jpg	 l	 1.545	 GoodTrial	 2.8	 bl
46	 5	 0	 x	 LineStimuli//2.8/stimNo123r0c0v2.8.jpg	 r	 1.931	 GoodTrial	 2.8	 bl
47	 5	 1	 right	 LineStimuli//2.8/stimNo92r14c21v2.8.jpg	 l	 1.595	 GoodTrial	 2.8	 bl
48	 5	 0	 x	 LineStimuli//2.8/stimNo149r0c0v2.8.jpg	 r	 1.750	 GoodTrial	 2.8	 bl
49	 5	 1	 left	 LineStimuli//2.8/stimNo108r13c6v2.8.jpg	 l	 1.637	 GoodTrial	 2.8	 bl
50	 5	 1	 left	 LineStimuli//2.8/stimNo87r11c8v2.8.jpg	 r	 1.776	 GoodTrial	 2.8	 bl
1	 6	 0	 x	 LineStimuli//4.3/stimNo137r0c0v4.3.jpg	 r	 2.168	 GoodTrial	 4.3	 bl
2	 6	 1	 left	 LineStimuli//4.3/stimNo87r3c5v4.3.jpg	 l	 1.606	 GoodTrial	 4.3	 bl
3	 6	 1	 left	 LineStimuli//4.3/stimNo86r7c3v4.3.jpg	 l	 1.619	 GoodTrial	 4.3	 bl
4	 6	 1	 left	 LineStimuli//4.3/stimNo83r4c2v4.3.jpg	 l	 1.551	 GoodTrial	 4.3	 bl
5	 6	 1	 left	 LineStimuli//4.3/stimNo101r5c5v4.3.jpg	 l	 1.505	 GoodTrial	 4.3	 bl
6	 6	 1	 left	 LineStimuli//4.3/stimNo110r6c7v4.3.jpg	 l	 1.609	 GoodTrial	 4.3	 bl
7	 6	 0	 x	 LineStimuli//4.3/stimNo149r0c0v4.3.jpg	 r	 1.781	 GoodTrial	 4.3	 bl
8	 6	 0	 x	 LineStimuli//4.3/stimNo125r0c0v4.3.jpg	 r	 1.698	 GoodTrial	 4.3	 bl
9	 6	 0	 x	 LineStimuli//4.3/stimNo160r0c0v4.3.jpg	 r	 1.582	 GoodTrial	 4.3	 bl
10	 6	 0	 x	 LineStimuli//4.3/stimNo136r0c0v4.3.jpg	 r	 2.086	 GoodTrial	 4.3	 bl
11	 6	 0	 x	 LineStimuli//4.3/stimNo143r0c0v4.3.jpg	 r	 1.806	 GoodTrial	 4.3	 bl
12	 6	 0	 x	 LineStimuli//4.3/stimNo126r0c0v4.3.jpg	 r	 1.592	 GoodTrial	 4.3	 bl
13	 6	 0	 x	 LineStimuli//4.3/stimNo139r0c0v4.3.jpg	 r	 1.937	 GoodTrial	 4.3	 bl
14	 6	 1	 right	 LineStimuli//4.3/stimNo112r10c16v4.3.jpg	 l	 1.600	 GoodTrial	 4.3	 bl
15	 6	 0	 x	 LineStimuli//4.3/stimNo158r0c0v4.3.jpg	 r	 1.647	 GoodTrial	 4.3	 bl
16	 6	 0	 x	 LineStimuli//4.3/stimNo154r0c0v4.3.jpg	 r	 1.759	 GoodTrial	 4.3	 bl
17	 6	 0	 x	 LineStimuli//4.3/stimNo132r0c0v4.3.jpg	 r	 1.825	 GoodTrial	 4.3	 bl
18	 6	 0	 x	 LineStimuli//4.3/stimNo121r0c0v4.3.jpg	 r	 1.651	 GoodTrial	 4.3	 bl
19	 6	 1	 left	 LineStimuli//4.3/stimNo95r11c9v4.3.jpg	 l	 1.713	 GoodTrial	 4.3	 bl
20	 6	 1	 left	 LineStimuli//4.3/stimNo113r11c7v4.3.jpg	 l	 1.569	 GoodTrial	 4.3	 bl
21	 6	 0	 x	 LineStimuli//4.3/stimNo127r0c0v4.3.jpg	 r	 1.737	 GoodTrial	 4.3	 bl
22	 6	 1	 right	 LineStimuli//4.3/stimNo97r6c21v4.3.jpg	 l	 1.633	 GoodTrial	 4.3	 bl
23	 6	 0	 x	 LineStimuli//4.3/stimNo147r0c0v4.3.jpg	 r	 1.667	 GoodTrial	 4.3	 bl
24	 6	 1	 right	 LineStimuli//4.3/stimNo120r8c18v4.3.jpg	 l	 1.583	 GoodTrial	 4.3	 bl
25	 6	 0	 x	 LineStimuli//4.3/stimNo151r0c0v4.3.jpg	 r	 1.587	 GoodTrial	 4.3	 bl
26	 6	 0	 x	 LineStimuli//4.3/stimNo150r0c0v4.3.jpg	 r	 1.805	 GoodTrial	 4.3	 bl
27	 6	 1	 right	 LineStimuli//4.3/stimNo92r2c20v4.3.jpg	 l	 1.736	 GoodTrial	 4.3	 bl
28	 6	 0	 x	 LineStimuli//4.3/stimNo152r0c0v4.3.jpg	 r	 1.656	 GoodTrial	 4.3	 bl
29	 6	 0	 x	 LineStimuli//4.3/stimNo155r0c0v4.3.jpg	 r	 1.632	 GoodTrial	 4.3	 bl
30	 6	 1	 left	 LineStimuli//4.3/stimNo107r2c8v4.3.jpg	 l	 1.716	 GoodTrial	 4.3	 bl
31	 6	 0	 x	 LineStimuli//4.3/stimNo138r0c0v4.3.jpg	 r	 1.545	 GoodTrial	 4.3	 bl
32	 6	 0	 x	 LineStimuli//4.3/stimNo140r0c0v4.3.jpg	 r	 1.587	 GoodTrial	 4.3	 bl
33	 6	 0	 x	 LineStimuli//4.3/stimNo156r0c0v4.3.jpg	 r	 1.792	 GoodTrial	 4.3	 bl
34	 6	 1	 right	 LineStimuli//4.3/stimNo84r15c20v4.3.jpg	 l	 1.728	 GoodTrial	 4.3	 bl
35	 6	 0	 x	 LineStimuli//4.3/stimNo142r0c0v4.3.jpg	 r	 1.600	 GoodTrial	 4.3	 bl
36	 6	 1	 left	 LineStimuli//4.3/stimNo106r8c2v4.3.jpg	 l	 1.655	 GoodTrial	 4.3	 bl
37	 6	 1	 right	 LineStimuli//4.3/stimNo117r10c21v4.3.jpg	 l	 1.672	 GoodTrial	 4.3	 bl
38	 6	 1	 left	 LineStimuli//4.3/stimNo85r3c5v4.3.jpg	 l	 1.718	 GoodTrial	 4.3	 bl
39	 6	 0	 x	 LineStimuli//4.3/stimNo135r0c0v4.3.jpg	 r	 1.545	 GoodTrial	 4.3	 bl
40	 6	 1	 right	 LineStimuli//4.3/stimNo96r4c19v4.3.jpg	 l	 1.592	 GoodTrial	 4.3	 bl
41	 6	 0	 x	 LineStimuli//4.3/stimNo123r0c0v4.3.jpg	 r	 1.642	 GoodTrial	 4.3	 bl
42	 6	 1	 right	 LineStimuli//4.3/stimNo81r10c14v4.3.jpg	 l	 1.599	 GoodTrial	 4.3	 bl
43	 6	 1	 right	 LineStimuli//4.3/stimNo89r3c17v4.3.jpg	 l	 1.553	 GoodTrial	 4.3	 bl
44	 6	 0	 x	 LineStimuli//4.3/stimNo130r0c0v4.3.jpg	 r	 1.798	 GoodTrial	 4.3	 bl
45	 6	 0	 x	 LineStimuli//4.3/stimNo159r0c0v4.3.jpg	 r	 1.674	 GoodTrial	 4.3	 bl
46	 6	 0	 x	 LineStimuli//4.3/stimNo128r0c0v4.3.jpg	 r	 1.585	 GoodTrial	 4.3	 bl
47	 6	 0	 x	 LineStimuli//4.3/stimNo144r0c0v4.3.jpg	 r	 1.538	 GoodTrial	 4.3	 bl
48	 6	 1	 left	 LineStimuli//4.3/stimNo88r10c3v4.3.jpg	 l	 1.642	 GoodTrial	 4.3	 bl
49	 6	 1	 right	 LineStimuli//4.3/stimNo115r10c18v4.3.jpg	 l	 1.616	 GoodTrial	 4.3	 bl
50	 6	 0	 x	 LineStimuli//4.3/stimNo131r0c0v4.3.jpg	 r	 1.800	 GoodTrial	 4.3	 bl
1	 7	 0	 x	 LineStimuli//3.8/stimNo128r0c0v3.8.jpg	 r	 1.877	 GoodTrial	 3.8	 bl
2	 7	 0	 x	 LineStimuli//3.8/stimNo123r0c0v3.8.jpg	 r	 2.107	 GoodTrial	 3.8	 bl
3	 7	 0	 x	 LineStimuli//3.8/stimNo159r0c0v3.8.jpg	 r	 1.741	 GoodTrial	 3.8	 bl
4	 7	 1	 right	 LineStimuli//3.8/stimNo107r9c18v3.8.jpg	 l	 1.616	 GoodTrial	 3.8	 bl
5	 7	 0	 x	 LineStimuli//3.8/stimNo157r0c0v3.8.jpg	 r	 1.537	 GoodTrial	 3.8	 bl
6	 7	 1	 left	 LineStimuli//3.8/stimNo115r14c10v3.8.jpg	 l	 1.717	 GoodTrial	 3.8	 bl
7	 7	 1	 right	 LineStimuli//3.8/stimNo81r3c21v3.8.jpg	 l	 1.808	 GoodTrial	 3.8	 bl
8	 7	 1	 left	 LineStimuli//3.8/stimNo98r2c9v3.8.jpg	 l	 1.681	 GoodTrial	 3.8	 bl
9	 7	 1	 right	 LineStimuli//3.8/stimNo85r3c13v3.8.jpg	 l	 1.712	 GoodTrial	 3.8	 bl
10	 7	 1	 right	 LineStimuli//3.8/stimNo88r10c17v3.8.jpg	 l	 1.586	 GoodTrial	 3.8	 bl
11	 7	 0	 x	 LineStimuli//3.8/stimNo136r0c0v3.8.jpg	 r	 1.739	 GoodTrial	 3.8	 bl
12	 7	 1	 right	 LineStimuli//3.8/stimNo101r12c17v3.8.jpg	 l	 1.808	 GoodTrial	 3.8	 bl
13	 7	 0	 x	 LineStimuli//3.8/stimNo130r0c0v3.8.jpg	 r	 1.650	 GoodTrial	 3.8	 bl
14	 7	 1	 right	 LineStimuli//3.8/stimNo90r8c17v3.8.jpg	 l	 1.792	 GoodTrial	 3.8	 bl
15	 7	 0	 x	 LineStimuli//3.8/stimNo151r0c0v3.8.jpg	 r	 1.620	 GoodTrial	 3.8	 bl
16	 7	 0	 x	 LineStimuli//3.8/stimNo143r0c0v3.8.jpg	 r	 1.894	 GoodTrial	 3.8	 bl
17	 7	 1	 right	 LineStimuli//3.8/stimNo92r6c21v3.8.jpg	 l	 1.628	 GoodTrial	 3.8	 bl
18	 7	 1	 left	 LineStimuli//3.8/stimNo113r14c9v3.8.jpg	 l	 1.880	 GoodTrial	 3.8	 bl
19	 7	 1	 left	 LineStimuli//3.8/stimNo116r7c3v3.8.jpg	 l	 1.666	 GoodTrial	 3.8	 bl
20	 7	 0	 x	 LineStimuli//3.8/stimNo127r0c0v3.8.jpg	 r	 1.764	 GoodTrial	 3.8	 bl
21	 7	 0	 x	 LineStimuli//3.8/stimNo155r0c0v3.8.jpg	 r	 1.860	 GoodTrial	 3.8	 bl
22	 7	 0	 x	 LineStimuli//3.8/stimNo142r0c0v3.8.jpg	 r	 1.736	 GoodTrial	 3.8	 bl
23	 7	 0	 x	 LineStimuli//3.8/stimNo135r0c0v3.8.jpg	 r	 1.633	 GoodTrial	 3.8	 bl
24	 7	 1	 left	 LineStimuli//3.8/stimNo83r9c9v3.8.jpg	 l	 1.700	 GoodTrial	 3.8	 bl
25	 7	 1	 right	 LineStimuli//3.8/stimNo84r9c19v3.8.jpg	 l	 1.576	 GoodTrial	 3.8	 bl
26	 7	 0	 x	 LineStimuli//3.8/stimNo145r0c0v3.8.jpg	 r	 1.625	 GoodTrial	 3.8	 bl
27	 7	 0	 x	 LineStimuli//3.8/stimNo148r0c0v3.8.jpg	 r	 1.525	 GoodTrial	 3.8	 bl
28	 7	 0	 x	 LineStimuli//3.8/stimNo144r0c0v3.8.jpg	 r	 1.913	 GoodTrial	 3.8	 bl
29	 7	 1	 right	 LineStimuli//3.8/stimNo117r6c17v3.8.jpg	 l	 1.591	 GoodTrial	 3.8	 bl
30	 7	 1	 left	 LineStimuli//3.8/stimNo105r2c6v3.8.jpg	 r	 1.681	 GoodTrial	 3.8	 bl
31	 7	 1	 right	 LineStimuli//3.8/stimNo87r6c13v3.8.jpg	 l	 1.596	 GoodTrial	 3.8	 bl
32	 7	 1	 right	 LineStimuli//3.8/stimNo96r2c13v3.8.jpg	 l	 1.548	 GoodTrial	 3.8	 bl
33	 7	 0	 x	 LineStimuli//3.8/stimNo124r0c0v3.8.jpg	 r	 2.036	 GoodTrial	 3.8	 bl
34	 7	 1	 right	 LineStimuli//3.8/stimNo114r10c14v3.8.jpg	 l	 1.544	 GoodTrial	 3.8	 bl
35	 7	 1	 left	 LineStimuli//3.8/stimNo109r11c8v3.8.jpg	 l	 1.605	 GoodTrial	 3.8	 bl
36	 7	 0	 x	 LineStimuli//3.8/stimNo160r0c0v3.8.jpg	 r	 1.825	 GoodTrial	 3.8	 bl
37	 7	 1	 right	 LineStimuli//3.8/stimNo111r15c20v3.8.jpg	 l	 1.595	 GoodTrial	 3.8	 bl
38	 7	 0	 x	 LineStimuli//3.8/stimNo141r0c0v3.8.jpg	 r	 1.740	 GoodTrial	 3.8	 bl
39	 7	 1	 left	 LineStimuli//3.8/stimNo104r12c8v3.8.jpg	 l	 1.597	 GoodTrial	 3.8	 bl
40	 7	 0	 x	 LineStimuli//3.8/stimNo125r0c0v3.8.jpg	 r	 1.749	 GoodTrial	 3.8	 bl
41	 7	 1	 right	 LineStimuli//3.8/stimNo94r6c17v3.8.jpg	 l	 1.591	 GoodTrial	 3.8	 bl
42	 7	 1	 left	 LineStimuli//3.8/stimNo86r7c7v3.8.jpg	 l	 1.616	 GoodTrial	 3.8	 bl
43	 7	 1	 right	 LineStimuli//3.8/stimNo82r9c21v3.8.jpg	 l	 1.583	 GoodTrial	 3.8	 bl
44	 7	 0	 x	 LineStimuli//3.8/stimNo131r0c0v3.8.jpg	 r	 1.816	 GoodTrial	 3.8	 bl
45	 7	 0	 x	 LineStimuli//3.8/stimNo158r0c0v3.8.jpg	 r	 2.031	 GoodTrial	 3.8	 bl
46	 7	 1	 left	 LineStimuli//3.8/stimNo120r5c3v3.8.jpg	 l	 1.685	 GoodTrial	 3.8	 bl
47	 7	 0	 x	 LineStimuli//3.8/stimNo137r0c0v3.8.jpg	 r	 1.705	 GoodTrial	 3.8	 bl
48	 7	 1	 left	 LineStimuli//3.8/stimNo93r8c2v3.8.jpg	 l	 1.861	 GoodTrial	 3.8	 bl
49	 7	 0	 x	 LineStimuli//3.8/stimNo156r0c0v3.8.jpg	 r	 1.662	 GoodTrial	 3.8	 bl
50	 7	 1	 left	 LineStimuli//3.8/stimNo108r3c6v3.8.jpg	 l	 1.694	 GoodTrial	 3.8	 bl
