Trial	Block	Target_pr	Target_side	Name	Key	RT	Message	Block_Type	Condition
1	 1	 1	 right	 LineStimuli//3.3/stimNo82r11c20v3.3.jpg	 l	 2.819	 GoodTrial	 3.3	 bl
2	 1	 0	 x	 LineStimuli//3.3/stimNo141r0c0v3.3.jpg	 r	 8.113	 GoodTrial	 3.3	 bl
3	 1	 0	 x	 LineStimuli//3.3/stimNo138r0c0v3.3.jpg	 r	 10.979	 GoodTrial	 3.3	 bl
4	 1	 0	 x	 LineStimuli//3.3/stimNo160r0c0v3.3.jpg	 r	 8.698	 GoodTrial	 3.3	 bl
5	 1	 0	 x	 LineStimuli//3.3/stimNo132r0c0v3.3.jpg	 r	 9.667	 GoodTrial	 3.3	 bl
6	 1	 0	 x	 LineStimuli//3.3/stimNo122r0c0v3.3.jpg	 r	 9.062	 GoodTrial	 3.3	 bl
7	 1	 0	 x	 LineStimuli//3.3/stimNo130r0c0v3.3.jpg	 r	 8.700	 GoodTrial	 3.3	 bl
8	 1	 0	 x	 LineStimuli//3.3/stimNo131r0c0v3.3.jpg	 r	 9.877	 GoodTrial	 3.3	 bl
9	 1	 1	 left	 LineStimuli//3.3/stimNo110r4c3v3.3.jpg	 l	 2.600	 GoodTrial	 3.3	 bl
10	 1	 0	 x	 LineStimuli//3.3/stimNo150r0c0v3.3.jpg	 r	 6.508	 GoodTrial	 3.3	 bl
11	 1	 1	 right	 LineStimuli//3.3/stimNo98r4c21v3.3.jpg	 l	 5.466	 GoodTrial	 3.3	 bl
12	 1	 1	 right	 LineStimuli//3.3/stimNo102r13c13v3.3.jpg	 l	 2.050	 GoodTrial	 3.3	 bl
13	 1	 0	 x	 LineStimuli//3.3/stimNo142r0c0v3.3.jpg	 r	 6.717	 GoodTrial	 3.3	 bl
14	 1	 0	 x	 LineStimuli//3.3/stimNo151r0c0v3.3.jpg	 r	 5.076	 GoodTrial	 3.3	 bl
15	 1	 0	 x	 LineStimuli//3.3/stimNo135r0c0v3.3.jpg	 r	 6.028	 GoodTrial	 3.3	 bl
16	 1	 0	 x	 LineStimuli//3.3/stimNo124r0c0v3.3.jpg	 r	 5.051	 GoodTrial	 3.3	 bl
17	 1	 0	 x	 LineStimuli//3.3/stimNo140r0c0v3.3.jpg	 r	 5.363	 GoodTrial	 3.3	 bl
18	 1	 1	 left	 LineStimuli//3.3/stimNo86r5c7v3.3.jpg	 l	 2.417	 GoodTrial	 3.3	 bl
19	 1	 0	 x	 LineStimuli//3.3/stimNo152r0c0v3.3.jpg	 r	 6.796	 GoodTrial	 3.3	 bl
20	 1	 1	 left	 LineStimuli//3.3/stimNo94r14c9v3.3.jpg	 l	 2.479	 GoodTrial	 3.3	 bl
21	 1	 1	 left	 LineStimuli//3.3/stimNo106r9c9v3.3.jpg	 l	 1.657	 GoodTrial	 3.3	 bl
22	 1	 1	 right	 LineStimuli//3.3/stimNo101r7c16v3.3.jpg	 l	 1.769	 GoodTrial	 3.3	 bl
23	 1	 1	 right	 LineStimuli//3.3/stimNo120r8c14v3.3.jpg	 l	 6.872	 GoodTrial	 3.3	 bl
24	 1	 1	 right	 LineStimuli//3.3/stimNo112r5c15v3.3.jpg	 l	 2.034	 GoodTrial	 3.3	 bl
25	 1	 0	 x	 LineStimuli//3.3/stimNo139r0c0v3.3.jpg	 r	 6.798	 GoodTrial	 3.3	 bl
26	 1	 1	 left	 LineStimuli//3.3/stimNo81r15c8v3.3.jpg	 l	 1.807	 GoodTrial	 3.3	 bl
27	 1	 1	 left	 LineStimuli//3.3/stimNo83r8c3v3.3.jpg	 l	 1.727	 GoodTrial	 3.3	 bl
28	 1	 1	 left	 LineStimuli//3.3/stimNo90r2c9v3.3.jpg	 l	 1.951	 GoodTrial	 3.3	 bl
29	 1	 1	 left	 LineStimuli//3.3/stimNo93r3c5v3.3.jpg	 l	 1.556	 GoodTrial	 3.3	 bl
30	 1	 1	 right	 LineStimuli//3.3/stimNo105r7c20v3.3.jpg	 l	 1.573	 GoodTrial	 3.3	 bl
31	 1	 0	 x	 LineStimuli//3.3/stimNo143r0c0v3.3.jpg	 r	 4.406	 GoodTrial	 3.3	 bl
32	 1	 1	 left	 LineStimuli//3.3/stimNo100r3c3v3.3.jpg	 l	 1.626	 GoodTrial	 3.3	 bl
33	 1	 1	 right	 LineStimuli//3.3/stimNo84r6c16v3.3.jpg	 l	 1.653	 GoodTrial	 3.3	 bl
34	 1	 1	 right	 LineStimuli//3.3/stimNo91r12c16v3.3.jpg	 l	 1.729	 GoodTrial	 3.3	 bl
35	 1	 1	 left	 LineStimuli//3.3/stimNo111r15c7v3.3.jpg	 l	 1.665	 GoodTrial	 3.3	 bl
36	 1	 1	 left	 LineStimuli//3.3/stimNo92r10c7v3.3.jpg	 l	 1.465	 GoodTrial	 3.3	 bl
37	 1	 1	 right	 LineStimuli//3.3/stimNo113r13c15v3.3.jpg	 l	 1.608	 GoodTrial	 3.3	 bl
38	 1	 0	 x	 LineStimuli//3.3/stimNo126r0c0v3.3.jpg	 r	 2.774	 GoodTrial	 3.3	 bl
39	 1	 1	 right	 LineStimuli//3.3/stimNo107r2c17v3.3.jpg	 l	 1.699	 GoodTrial	 3.3	 bl
40	 1	 0	 x	 LineStimuli//3.3/stimNo144r0c0v3.3.jpg	 r	 2.874	 GoodTrial	 3.3	 bl
41	 1	 1	 right	 LineStimuli//3.3/stimNo96r8c18v3.3.jpg	 l	 1.847	 GoodTrial	 3.3	 bl
42	 1	 0	 x	 LineStimuli//3.3/stimNo128r0c0v3.3.jpg	 r	 4.019	 GoodTrial	 3.3	 bl
43	 1	 0	 x	 LineStimuli//3.3/stimNo137r0c0v3.3.jpg	 r	 3.352	 GoodTrial	 3.3	 bl
44	 1	 1	 left	 LineStimuli//3.3/stimNo119r15c7v3.3.jpg	 l	 2.001	 GoodTrial	 3.3	 bl
45	 1	 0	 x	 LineStimuli//3.3/stimNo153r0c0v3.3.jpg	 r	 4.947	 GoodTrial	 3.3	 bl
46	 1	 0	 x	 LineStimuli//3.3/stimNo157r0c0v3.3.jpg	 r	 4.856	 GoodTrial	 3.3	 bl
47	 1	 1	 right	 LineStimuli//3.3/stimNo99r6c17v3.3.jpg	 l	 1.647	 GoodTrial	 3.3	 bl
48	 1	 1	 left	 LineStimuli//3.3/stimNo103r6c6v3.3.jpg	 l	 1.783	 GoodTrial	 3.3	 bl
49	 1	 1	 left	 LineStimuli//3.3/stimNo115r3c4v3.3.jpg	 l	 1.569	 GoodTrial	 3.3	 bl
50	 1	 1	 right	 LineStimuli//3.3/stimNo97r6c13v3.3.jpg	 l	 2.461	 GoodTrial	 3.3	 bl
1	 2	 0	 x	 LineStimuli//4.3/stimNo136r0c0v4.3.jpg	 r	 4.384	 GoodTrial	 4.3	 bl
2	 2	 1	 left	 LineStimuli//4.3/stimNo101r5c5v4.3.jpg	 l	 1.612	 GoodTrial	 4.3	 bl
3	 2	 0	 x	 LineStimuli//4.3/stimNo149r0c0v4.3.jpg	 r	 3.683	 GoodTrial	 4.3	 bl
4	 2	 0	 x	 LineStimuli//4.3/stimNo122r0c0v4.3.jpg	 r	 4.838	 GoodTrial	 4.3	 bl
5	 2	 1	 left	 LineStimuli//4.3/stimNo95r11c9v4.3.jpg	 l	 1.719	 GoodTrial	 4.3	 bl
6	 2	 0	 x	 LineStimuli//4.3/stimNo137r0c0v4.3.jpg	 r	 4.349	 GoodTrial	 4.3	 bl
7	 2	 0	 x	 LineStimuli//4.3/stimNo147r0c0v4.3.jpg	 r	 3.625	 GoodTrial	 4.3	 bl
8	 2	 0	 x	 LineStimuli//4.3/stimNo128r0c0v4.3.jpg	 r	 3.701	 GoodTrial	 4.3	 bl
9	 2	 1	 right	 LineStimuli//4.3/stimNo118r11c13v4.3.jpg	 l	 1.801	 GoodTrial	 4.3	 bl
10	 2	 0	 x	 LineStimuli//4.3/stimNo146r0c0v4.3.jpg	 r	 3.417	 GoodTrial	 4.3	 bl
11	 2	 1	 right	 LineStimuli//4.3/stimNo116r5c13v4.3.jpg	 l	 1.907	 GoodTrial	 4.3	 bl
12	 2	 1	 left	 LineStimuli//4.3/stimNo85r3c5v4.3.jpg	 l	 1.557	 GoodTrial	 4.3	 bl
13	 2	 1	 right	 LineStimuli//4.3/stimNo97r6c21v4.3.jpg	 l	 1.661	 GoodTrial	 4.3	 bl
14	 2	 1	 left	 LineStimuli//4.3/stimNo86r7c3v4.3.jpg	 l	 1.543	 GoodTrial	 4.3	 bl
15	 2	 0	 x	 LineStimuli//4.3/stimNo126r0c0v4.3.jpg	 r	 4.393	 GoodTrial	 4.3	 bl
16	 2	 0	 x	 LineStimuli//4.3/stimNo159r0c0v4.3.jpg	 r	 4.784	 GoodTrial	 4.3	 bl
17	 2	 1	 right	 LineStimuli//4.3/stimNo94r12c13v4.3.jpg	 l	 1.832	 GoodTrial	 4.3	 bl
18	 2	 1	 right	 LineStimuli//4.3/stimNo82r7c18v4.3.jpg	 l	 1.528	 GoodTrial	 4.3	 bl
19	 2	 0	 x	 LineStimuli//4.3/stimNo130r0c0v4.3.jpg	 r	 4.901	 GoodTrial	 4.3	 bl
20	 2	 1	 right	 LineStimuli//4.3/stimNo112r10c16v4.3.jpg	 l	 1.768	 GoodTrial	 4.3	 bl
21	 2	 0	 x	 LineStimuli//4.3/stimNo141r0c0v4.3.jpg	 r	 4.310	 GoodTrial	 4.3	 bl
22	 2	 1	 left	 LineStimuli//4.3/stimNo108r5c8v4.3.jpg	 l	 1.922	 GoodTrial	 4.3	 bl
23	 2	 0	 x	 LineStimuli//4.3/stimNo140r0c0v4.3.jpg	 r	 5.165	 GoodTrial	 4.3	 bl
24	 2	 0	 x	 LineStimuli//4.3/stimNo121r0c0v4.3.jpg	 r	 5.128	 GoodTrial	 4.3	 bl
25	 2	 1	 left	 LineStimuli//4.3/stimNo111r10c9v4.3.jpg	 l	 1.764	 GoodTrial	 4.3	 bl
26	 2	 1	 left	 LineStimuli//4.3/stimNo93r9c9v4.3.jpg	 l	 1.842	 GoodTrial	 4.3	 bl
27	 2	 1	 right	 LineStimuli//4.3/stimNo84r15c20v4.3.jpg	 l	 2.451	 GoodTrial	 4.3	 bl
28	 2	 0	 x	 LineStimuli//4.3/stimNo144r0c0v4.3.jpg	 r	 5.511	 GoodTrial	 4.3	 bl
29	 2	 1	 left	 LineStimuli//4.3/stimNo88r10c3v4.3.jpg	 l	 1.729	 GoodTrial	 4.3	 bl
30	 2	 0	 x	 LineStimuli//4.3/stimNo127r0c0v4.3.jpg	 r	 5.144	 GoodTrial	 4.3	 bl
31	 2	 1	 right	 LineStimuli//4.3/stimNo117r10c21v4.3.jpg	 l	 2.449	 GoodTrial	 4.3	 bl
32	 2	 1	 right	 LineStimuli//4.3/stimNo115r10c18v4.3.jpg	 l	 1.611	 GoodTrial	 4.3	 bl
33	 2	 0	 x	 LineStimuli//4.3/stimNo156r0c0v4.3.jpg	 r	 4.213	 GoodTrial	 4.3	 bl
34	 2	 1	 left	 LineStimuli//4.3/stimNo98r3c8v4.3.jpg	 l	 1.654	 GoodTrial	 4.3	 bl
35	 2	 0	 x	 LineStimuli//4.3/stimNo154r0c0v4.3.jpg	 r	 4.734	 GoodTrial	 4.3	 bl
36	 2	 1	 left	 LineStimuli//4.3/stimNo87r3c5v4.3.jpg	 l	 1.634	 GoodTrial	 4.3	 bl
37	 2	 1	 right	 LineStimuli//4.3/stimNo96r4c19v4.3.jpg	 l	 1.567	 GoodTrial	 4.3	 bl
38	 2	 1	 left	 LineStimuli//4.3/stimNo106r8c2v4.3.jpg	 l	 1.683	 GoodTrial	 4.3	 bl
39	 2	 0	 x	 LineStimuli//4.3/stimNo158r0c0v4.3.jpg	 r	 6.056	 GoodTrial	 4.3	 bl
40	 2	 0	 x	 LineStimuli//4.3/stimNo139r0c0v4.3.jpg	 r	 4.049	 GoodTrial	 4.3	 bl
41	 2	 1	 right	 LineStimuli//4.3/stimNo119r12c17v4.3.jpg	 l	 1.731	 GoodTrial	 4.3	 bl
42	 2	 0	 x	 LineStimuli//4.3/stimNo134r0c0v4.3.jpg	 r	 3.659	 GoodTrial	 4.3	 bl
43	 2	 0	 x	 LineStimuli//4.3/stimNo157r0c0v4.3.jpg	 r	 2.784	 GoodTrial	 4.3	 bl
44	 2	 0	 x	 LineStimuli//4.3/stimNo143r0c0v4.3.jpg	 r	 2.593	 GoodTrial	 4.3	 bl
45	 2	 0	 x	 LineStimuli//4.3/stimNo133r0c0v4.3.jpg	 r	 3.016	 GoodTrial	 4.3	 bl
46	 2	 1	 left	 LineStimuli//4.3/stimNo83r4c2v4.3.jpg	 l	 2.105	 GoodTrial	 4.3	 bl
47	 2	 1	 left	 LineStimuli//4.3/stimNo100r8c3v4.3.jpg	 r	 4.546	 GoodTrial	 4.3	 bl
48	 2	 0	 x	 LineStimuli//4.3/stimNo151r0c0v4.3.jpg	 r	 6.016	 GoodTrial	 4.3	 bl
49	 2	 1	 left	 LineStimuli//4.3/stimNo107r2c8v4.3.jpg	 l	 2.011	 GoodTrial	 4.3	 bl
50	 2	 0	 x	 LineStimuli//4.3/stimNo155r0c0v4.3.jpg	 r	 5.983	 GoodTrial	 4.3	 bl
1	 3	 0	 x	 LineStimuli//2.8/stimNo125r0c0v2.8.jpg	 r	 5.526	 GoodTrial	 2.8	 bl
2	 3	 1	 left	 LineStimuli//2.8/stimNo88r15c3v2.8.jpg	 l	 1.861	 GoodTrial	 2.8	 bl
3	 3	 1	 left	 LineStimuli//2.8/stimNo105r5c4v2.8.jpg	 l	 1.798	 GoodTrial	 2.8	 bl
4	 3	 1	 right	 LineStimuli//2.8/stimNo115r9c14v2.8.jpg	 l	 1.913	 GoodTrial	 2.8	 bl
5	 3	 0	 x	 LineStimuli//2.8/stimNo126r0c0v2.8.jpg	 r	 4.970	 GoodTrial	 2.8	 bl
6	 3	 0	 x	 LineStimuli//2.8/stimNo124r0c0v2.8.jpg	 r	 4.839	 GoodTrial	 2.8	 bl
7	 3	 0	 x	 LineStimuli//2.8/stimNo156r0c0v2.8.jpg	 r	 6.361	 GoodTrial	 2.8	 bl
8	 3	 0	 x	 LineStimuli//2.8/stimNo144r0c0v2.8.jpg	 r	 4.988	 GoodTrial	 2.8	 bl
9	 3	 1	 right	 LineStimuli//2.8/stimNo90r13c21v2.8.jpg	 l	 2.965	 GoodTrial	 2.8	 bl
10	 3	 0	 x	 LineStimuli//2.8/stimNo141r0c0v2.8.jpg	 r	 7.080	 GoodTrial	 2.8	 bl
11	 3	 0	 x	 LineStimuli//2.8/stimNo136r0c0v2.8.jpg	 r	 5.809	 GoodTrial	 2.8	 bl
12	 3	 1	 right	 LineStimuli//2.8/stimNo118r5c16v2.8.jpg	 l	 1.697	 GoodTrial	 2.8	 bl
13	 3	 1	 left	 LineStimuli//2.8/stimNo84r3c9v2.8.jpg	 l	 1.802	 GoodTrial	 2.8	 bl
14	 3	 1	 right	 LineStimuli//2.8/stimNo85r4c15v2.8.jpg	 l	 1.688	 GoodTrial	 2.8	 bl
15	 3	 1	 right	 LineStimuli//2.8/stimNo112r13c17v2.8.jpg	 l	 2.097	 GoodTrial	 2.8	 bl
16	 3	 1	 left	 LineStimuli//2.8/stimNo97r11c4v2.8.jpg	 l	 1.789	 GoodTrial	 2.8	 bl
17	 3	 1	 right	 LineStimuli//2.8/stimNo117r11c17v2.8.jpg	 l	 1.584	 GoodTrial	 2.8	 bl
18	 3	 1	 left	 LineStimuli//2.8/stimNo102r3c2v2.8.jpg	 l	 1.907	 GoodTrial	 2.8	 bl
19	 3	 0	 x	 LineStimuli//2.8/stimNo131r0c0v2.8.jpg	 r	 7.032	 GoodTrial	 2.8	 bl
20	 3	 1	 left	 LineStimuli//2.8/stimNo91r2c3v2.8.jpg	 l	 1.873	 GoodTrial	 2.8	 bl
21	 3	 1	 left	 LineStimuli//2.8/stimNo104r8c6v2.8.jpg	 l	 3.311	 GoodTrial	 2.8	 bl
22	 3	 1	 left	 LineStimuli//2.8/stimNo83r12c4v2.8.jpg	 l	 1.804	 GoodTrial	 2.8	 bl
23	 3	 0	 x	 LineStimuli//2.8/stimNo140r0c0v2.8.jpg	 r	 7.064	 GoodTrial	 2.8	 bl
24	 3	 1	 right	 LineStimuli//2.8/stimNo120r8c20v2.8.jpg	 l	 2.095	 GoodTrial	 2.8	 bl
25	 3	 1	 right	 LineStimuli//2.8/stimNo111r9c15v2.8.jpg	 l	 4.504	 GoodTrial	 2.8	 bl
26	 3	 1	 right	 LineStimuli//2.8/stimNo100r8c13v2.8.jpg	 l	 1.701	 GoodTrial	 2.8	 bl
27	 3	 1	 left	 LineStimuli//2.8/stimNo87r11c8v2.8.jpg	 l	 1.726	 GoodTrial	 2.8	 bl
28	 3	 1	 right	 LineStimuli//2.8/stimNo101r12c16v2.8.jpg	 l	 1.825	 GoodTrial	 2.8	 bl
29	 3	 0	 x	 LineStimuli//2.8/stimNo132r0c0v2.8.jpg	 r	 6.585	 GoodTrial	 2.8	 bl
30	 3	 0	 x	 LineStimuli//2.8/stimNo148r0c0v2.8.jpg	 r	 5.483	 GoodTrial	 2.8	 bl
31	 3	 1	 left	 LineStimuli//2.8/stimNo96r6c9v2.8.jpg	 l	 1.774	 GoodTrial	 2.8	 bl
32	 3	 0	 x	 LineStimuli//2.8/stimNo134r0c0v2.8.jpg	 r	 8.756	 GoodTrial	 2.8	 bl
33	 3	 0	 x	 LineStimuli//2.8/stimNo152r0c0v2.8.jpg	 r	 6.471	 GoodTrial	 2.8	 bl
34	 3	 1	 right	 LineStimuli//2.8/stimNo92r14c21v2.8.jpg	 l	 2.086	 GoodTrial	 2.8	 bl
35	 3	 1	 right	 LineStimuli//2.8/stimNo81r8c14v2.8.jpg	 l	 1.655	 GoodTrial	 2.8	 bl
36	 3	 1	 left	 LineStimuli//2.8/stimNo107r5c6v2.8.jpg	 l	 1.675	 GoodTrial	 2.8	 bl
37	 3	 1	 left	 LineStimuli//2.8/stimNo86r15c6v2.8.jpg	 l	 1.791	 GoodTrial	 2.8	 bl
38	 3	 1	 left	 LineStimuli//2.8/stimNo113r9c5v2.8.jpg	 l	 1.633	 GoodTrial	 2.8	 bl
39	 3	 1	 left	 LineStimuli//2.8/stimNo94r13c7v2.8.jpg	 l	 1.899	 GoodTrial	 2.8	 bl
40	 3	 1	 left	 LineStimuli//2.8/stimNo116r4c7v2.8.jpg	 l	 1.809	 GoodTrial	 2.8	 bl
41	 3	 1	 left	 LineStimuli//2.8/stimNo119r8c5v2.8.jpg	 l	 1.659	 GoodTrial	 2.8	 bl
42	 3	 0	 x	 LineStimuli//2.8/stimNo159r0c0v2.8.jpg	 r	 7.021	 GoodTrial	 2.8	 bl
43	 3	 0	 x	 LineStimuli//2.8/stimNo137r0c0v2.8.jpg	 r	 4.335	 GoodTrial	 2.8	 bl
44	 3	 1	 right	 LineStimuli//2.8/stimNo93r9c20v2.8.jpg	 l	 1.851	 GoodTrial	 2.8	 bl
45	 3	 1	 right	 LineStimuli//2.8/stimNo103r3c19v2.8.jpg	 l	 2.188	 GoodTrial	 2.8	 bl
46	 3	 0	 x	 LineStimuli//2.8/stimNo154r0c0v2.8.jpg	 r	 4.945	 GoodTrial	 2.8	 bl
47	 3	 0	 x	 LineStimuli//2.8/stimNo129r0c0v2.8.jpg	 r	 4.680	 GoodTrial	 2.8	 bl
48	 3	 0	 x	 LineStimuli//2.8/stimNo146r0c0v2.8.jpg	 r	 4.472	 GoodTrial	 2.8	 bl
49	 3	 1	 right	 LineStimuli//2.8/stimNo114r8c19v2.8.jpg	 l	 1.852	 GoodTrial	 2.8	 bl
50	 3	 1	 left	 LineStimuli//2.8/stimNo82r4c6v2.8.jpg	 l	 1.675	 GoodTrial	 2.8	 bl
1	 4	 0	 x	 LineStimuli//3.8/stimNo139r0c0v3.8.jpg	 r	 3.403	 GoodTrial	 3.8	 bl
2	 4	 0	 x	 LineStimuli//3.8/stimNo150r0c0v3.8.jpg	 r	 3.971	 GoodTrial	 3.8	 bl
3	 4	 1	 right	 LineStimuli//3.8/stimNo84r9c19v3.8.jpg	 l	 1.738	 GoodTrial	 3.8	 bl
4	 4	 1	 right	 LineStimuli//3.8/stimNo88r10c17v3.8.jpg	 l	 1.442	 GoodTrial	 3.8	 bl
5	 4	 1	 left	 LineStimuli//3.8/stimNo103r11c7v3.8.jpg	 l	 1.567	 GoodTrial	 3.8	 bl
6	 4	 1	 left	 LineStimuli//3.8/stimNo89r10c7v3.8.jpg	 l	 1.456	 GoodTrial	 3.8	 bl
7	 4	 1	 right	 LineStimuli//3.8/stimNo107r9c18v3.8.jpg	 l	 1.554	 GoodTrial	 3.8	 bl
8	 4	 0	 x	 LineStimuli//3.8/stimNo135r0c0v3.8.jpg	 r	 5.723	 GoodTrial	 3.8	 bl
9	 4	 0	 x	 LineStimuli//3.8/stimNo140r0c0v3.8.jpg	 r	 3.342	 GoodTrial	 3.8	 bl
10	 4	 1	 right	 LineStimuli//3.8/stimNo81r3c21v3.8.jpg	 l	 1.742	 GoodTrial	 3.8	 bl
11	 4	 1	 left	 LineStimuli//3.8/stimNo100r13c6v3.8.jpg	 l	 1.661	 GoodTrial	 3.8	 bl
12	 4	 1	 left	 LineStimuli//3.8/stimNo106r9c9v3.8.jpg	 l	 1.472	 GoodTrial	 3.8	 bl
13	 4	 1	 right	 LineStimuli//3.8/stimNo85r3c13v3.8.jpg	 l	 1.531	 GoodTrial	 3.8	 bl
14	 4	 1	 right	 LineStimuli//3.8/stimNo102r10c17v3.8.jpg	 l	 1.640	 GoodTrial	 3.8	 bl
15	 4	 1	 left	 LineStimuli//3.8/stimNo109r11c8v3.8.jpg	 l	 1.495	 GoodTrial	 3.8	 bl
16	 4	 1	 left	 LineStimuli//3.8/stimNo97r15c9v3.8.jpg	 l	 1.721	 GoodTrial	 3.8	 bl
17	 4	 0	 x	 LineStimuli//3.8/stimNo123r0c0v3.8.jpg	 r	 4.941	 GoodTrial	 3.8	 bl
18	 4	 1	 left	 LineStimuli//3.8/stimNo108r3c6v3.8.jpg	 l	 1.654	 GoodTrial	 3.8	 bl
19	 4	 0	 x	 LineStimuli//3.8/stimNo132r0c0v3.8.jpg	 r	 4.103	 GoodTrial	 3.8	 bl
20	 4	 0	 x	 LineStimuli//3.8/stimNo159r0c0v3.8.jpg	 r	 3.433	 GoodTrial	 3.8	 bl
21	 4	 0	 x	 LineStimuli//3.8/stimNo137r0c0v3.8.jpg	 r	 3.177	 GoodTrial	 3.8	 bl
22	 4	 0	 x	 LineStimuli//3.8/stimNo138r0c0v3.8.jpg	 r	 3.444	 GoodTrial	 3.8	 bl
23	 4	 1	 left	 LineStimuli//3.8/stimNo93r8c2v3.8.jpg	 l	 1.936	 GoodTrial	 3.8	 bl
24	 4	 0	 x	 LineStimuli//3.8/stimNo156r0c0v3.8.jpg	 r	 3.240	 GoodTrial	 3.8	 bl
25	 4	 0	 x	 LineStimuli//3.8/stimNo151r0c0v3.8.jpg	 r	 3.712	 GoodTrial	 3.8	 bl
26	 4	 0	 x	 LineStimuli//3.8/stimNo141r0c0v3.8.jpg	 r	 3.489	 GoodTrial	 3.8	 bl
27	 4	 0	 x	 LineStimuli//3.8/stimNo147r0c0v3.8.jpg	 r	 3.501	 GoodTrial	 3.8	 bl
28	 4	 1	 right	 LineStimuli//3.8/stimNo96r2c13v3.8.jpg	 l	 1.827	 GoodTrial	 3.8	 bl
29	 4	 0	 x	 LineStimuli//3.8/stimNo136r0c0v3.8.jpg	 r	 3.231	 GoodTrial	 3.8	 bl
30	 4	 1	 right	 LineStimuli//3.8/stimNo91r10c16v3.8.jpg	 l	 1.703	 GoodTrial	 3.8	 bl
31	 4	 0	 x	 LineStimuli//3.8/stimNo131r0c0v3.8.jpg	 r	 2.971	 GoodTrial	 3.8	 bl
32	 4	 1	 right	 LineStimuli//3.8/stimNo117r6c17v3.8.jpg	 l	 1.632	 GoodTrial	 3.8	 bl
33	 4	 0	 x	 LineStimuli//3.8/stimNo158r0c0v3.8.jpg	 r	 5.072	 GoodTrial	 3.8	 bl
34	 4	 0	 x	 LineStimuli//3.8/stimNo153r0c0v3.8.jpg	 r	 5.013	 GoodTrial	 3.8	 bl
35	 4	 1	 left	 LineStimuli//3.8/stimNo110r7c9v3.8.jpg	 l	 1.935	 GoodTrial	 3.8	 bl
36	 4	 0	 x	 LineStimuli//3.8/stimNo129r0c0v3.8.jpg	 r	 4.290	 GoodTrial	 3.8	 bl
37	 4	 0	 x	 LineStimuli//3.8/stimNo152r0c0v3.8.jpg	 r	 4.839	 GoodTrial	 3.8	 bl
38	 4	 1	 right	 LineStimuli//3.8/stimNo95r5c21v3.8.jpg	 l	 1.700	 GoodTrial	 3.8	 bl
39	 4	 1	 left	 LineStimuli//3.8/stimNo83r9c9v3.8.jpg	 l	 1.511	 GoodTrial	 3.8	 bl
40	 4	 1	 left	 LineStimuli//3.8/stimNo104r12c8v3.8.jpg	 l	 1.486	 GoodTrial	 3.8	 bl
41	 4	 0	 x	 LineStimuli//3.8/stimNo160r0c0v3.8.jpg	 r	 3.978	 GoodTrial	 3.8	 bl
42	 4	 1	 right	 LineStimuli//3.8/stimNo90r8c17v3.8.jpg	 l	 1.686	 GoodTrial	 3.8	 bl
43	 4	 1	 left	 LineStimuli//3.8/stimNo105r2c6v3.8.jpg	 l	 1.594	 GoodTrial	 3.8	 bl
44	 4	 0	 x	 LineStimuli//3.8/stimNo128r0c0v3.8.jpg	 r	 4.026	 GoodTrial	 3.8	 bl
45	 4	 1	 right	 LineStimuli//3.8/stimNo101r12c17v3.8.jpg	 l	 1.605	 GoodTrial	 3.8	 bl
46	 4	 1	 right	 LineStimuli//3.8/stimNo92r6c21v3.8.jpg	 l	 1.646	 GoodTrial	 3.8	 bl
47	 4	 1	 right	 LineStimuli//3.8/stimNo99r2c13v3.8.jpg	 l	 1.595	 GoodTrial	 3.8	 bl
48	 4	 1	 left	 LineStimuli//3.8/stimNo86r7c7v3.8.jpg	 l	 1.520	 GoodTrial	 3.8	 bl
49	 4	 1	 left	 LineStimuli//3.8/stimNo116r7c3v3.8.jpg	 l	 1.528	 GoodTrial	 3.8	 bl
50	 4	 1	 left	 LineStimuli//3.8/stimNo118r4c8v3.8.jpg	 l	 1.513	 GoodTrial	 3.8	 bl
1	 5	 1	 left	 LineStimuli//2.3/stimNo117r11c8v2.3.jpg	 l	 1.624	 GoodTrial	 2.3	 bl
2	 5	 0	 x	 LineStimuli//2.3/stimNo144r0c0v2.3.jpg	 r	 4.356	 GoodTrial	 2.3	 bl
3	 5	 1	 left	 LineStimuli//2.3/stimNo81r4c3v2.3.jpg	 l	 1.913	 GoodTrial	 2.3	 bl
4	 5	 0	 x	 LineStimuli//2.3/stimNo134r0c0v2.3.jpg	 r	 4.360	 GoodTrial	 2.3	 bl
5	 5	 1	 right	 LineStimuli//2.3/stimNo101r8c14v2.3.jpg	 r	 4.089	 GoodTrial	 2.3	 bl
6	 5	 1	 right	 LineStimuli//2.3/stimNo89r8c21v2.3.jpg	 l	 1.930	 GoodTrial	 2.3	 bl
7	 5	 0	 x	 LineStimuli//2.3/stimNo132r0c0v2.3.jpg	 r	 2.903	 GoodTrial	 2.3	 bl
8	 5	 0	 x	 LineStimuli//2.3/stimNo138r0c0v2.3.jpg	 r	 6.974	 GoodTrial	 2.3	 bl
9	 5	 0	 x	 LineStimuli//2.3/stimNo130r0c0v2.3.jpg	 r	 4.858	 GoodTrial	 2.3	 bl
10	 5	 1	 left	 LineStimuli//2.3/stimNo82r12c4v2.3.jpg	 l	 4.921	 GoodTrial	 2.3	 bl
11	 5	 1	 left	 LineStimuli//2.3/stimNo114r7c8v2.3.jpg	 l	 1.624	 GoodTrial	 2.3	 bl
12	 5	 0	 x	 LineStimuli//2.3/stimNo149r0c0v2.3.jpg	 r	 8.593	 GoodTrial	 2.3	 bl
13	 5	 1	 left	 LineStimuli//2.3/stimNo86r8c9v2.3.jpg	 l	 1.547	 GoodTrial	 2.3	 bl
14	 5	 1	 left	 LineStimuli//2.3/stimNo113r3c8v2.3.jpg	 l	 2.404	 GoodTrial	 2.3	 bl
15	 5	 0	 x	 LineStimuli//2.3/stimNo129r0c0v2.3.jpg	 r	 8.182	 GoodTrial	 2.3	 bl
16	 5	 0	 x	 LineStimuli//2.3/stimNo123r0c0v2.3.jpg	 r	 4.854	 GoodTrial	 2.3	 bl
17	 5	 0	 x	 LineStimuli//2.3/stimNo157r0c0v2.3.jpg	 r	 9.937	 GoodTrial	 2.3	 bl
18	 5	 1	 right	 LineStimuli//2.3/stimNo90r14c21v2.3.jpg	 l	 3.856	 GoodTrial	 2.3	 bl
19	 5	 0	 x	 LineStimuli//2.3/stimNo124r0c0v2.3.jpg	 r	 7.487	 GoodTrial	 2.3	 bl
20	 5	 1	 left	 LineStimuli//2.3/stimNo94r8c9v2.3.jpg	 r	 3.847	 GoodTrial	 2.3	 bl
21	 5	 0	 x	 LineStimuli//2.3/stimNo142r0c0v2.3.jpg	 r	 6.953	 GoodTrial	 2.3	 bl
22	 5	 0	 x	 LineStimuli//2.3/stimNo125r0c0v2.3.jpg	 r	 6.160	 GoodTrial	 2.3	 bl
23	 5	 1	 left	 LineStimuli//2.3/stimNo106r9c9v2.3.jpg	 l	 1.853	 GoodTrial	 2.3	 bl
24	 5	 1	 right	 LineStimuli//2.3/stimNo85r4c15v2.3.jpg	 l	 6.227	 GoodTrial	 2.3	 bl
25	 5	 1	 right	 LineStimuli//2.3/stimNo111r11c21v2.3.jpg	 l	 1.821	 GoodTrial	 2.3	 bl
26	 5	 0	 x	 LineStimuli//2.3/stimNo148r0c0v2.3.jpg	 r	 6.511	 GoodTrial	 2.3	 bl
27	 5	 0	 x	 LineStimuli//2.3/stimNo133r0c0v2.3.jpg	 r	 5.911	 GoodTrial	 2.3	 bl
28	 5	 1	 left	 LineStimuli//2.3/stimNo112r3c2v2.3.jpg	 l	 1.877	 GoodTrial	 2.3	 bl
29	 5	 1	 right	 LineStimuli//2.3/stimNo107r11c15v2.3.jpg	 l	 1.870	 GoodTrial	 2.3	 bl
30	 5	 0	 x	 LineStimuli//2.3/stimNo152r0c0v2.3.jpg	 r	 6.428	 GoodTrial	 2.3	 bl
31	 5	 1	 right	 LineStimuli//2.3/stimNo109r2c17v2.3.jpg	 l	 5.086	 GoodTrial	 2.3	 bl
32	 5	 0	 x	 LineStimuli//2.3/stimNo153r0c0v2.3.jpg	 r	 6.895	 GoodTrial	 2.3	 bl
33	 5	 0	 x	 LineStimuli//2.3/stimNo127r0c0v2.3.jpg	 r	 5.478	 GoodTrial	 2.3	 bl
34	 5	 1	 left	 LineStimuli//2.3/stimNo95r13c9v2.3.jpg	 l	 2.110	 GoodTrial	 2.3	 bl
35	 5	 0	 x	 LineStimuli//2.3/stimNo145r0c0v2.3.jpg	 r	 6.915	 GoodTrial	 2.3	 bl
36	 5	 0	 x	 LineStimuli//2.3/stimNo146r0c0v2.3.jpg	 r	 5.857	 GoodTrial	 2.3	 bl
37	 5	 1	 left	 LineStimuli//2.3/stimNo108r15c6v2.3.jpg	 l	 1.992	 GoodTrial	 2.3	 bl
38	 5	 0	 x	 LineStimuli//2.3/stimNo131r0c0v2.3.jpg	 r	 5.446	 GoodTrial	 2.3	 bl
39	 5	 0	 x	 LineStimuli//2.3/stimNo137r0c0v2.3.jpg	 r	 5.232	 GoodTrial	 2.3	 bl
40	 5	 0	 x	 LineStimuli//2.3/stimNo160r0c0v2.3.jpg	 r	 5.751	 GoodTrial	 2.3	 bl
41	 5	 0	 x	 LineStimuli//2.3/stimNo135r0c0v2.3.jpg	 r	 5.175	 GoodTrial	 2.3	 bl
42	 5	 0	 x	 LineStimuli//2.3/stimNo139r0c0v2.3.jpg	 r	 5.384	 GoodTrial	 2.3	 bl
43	 5	 0	 x	 LineStimuli//2.3/stimNo156r0c0v2.3.jpg	 r	 4.878	 GoodTrial	 2.3	 bl
44	 5	 0	 x	 LineStimuli//2.3/stimNo155r0c0v2.3.jpg	 r	 4.649	 GoodTrial	 2.3	 bl
45	 5	 1	 right	 LineStimuli//2.3/stimNo91r11c20v2.3.jpg	 l	 2.882	 GoodTrial	 2.3	 bl
46	 5	 0	 x	 LineStimuli//2.3/stimNo150r0c0v2.3.jpg	 r	 4.665	 GoodTrial	 2.3	 bl
47	 5	 1	 right	 LineStimuli//2.3/stimNo93r4c16v2.3.jpg	 l	 1.947	 GoodTrial	 2.3	 bl
48	 5	 1	 left	 LineStimuli//2.3/stimNo96r3c3v2.3.jpg	 l	 2.075	 GoodTrial	 2.3	 bl
49	 5	 0	 x	 LineStimuli//2.3/stimNo154r0c0v2.3.jpg	 r	 4.414	 GoodTrial	 2.3	 bl
50	 5	 0	 x	 LineStimuli//2.3/stimNo141r0c0v2.3.jpg	 r	 4.468	 GoodTrial	 2.3	 bl
1	 6	 0	 x	 LineStimuli//1.5/stimNo149r0c0v1.5.jpg	 l	 3.533	 GoodTrial	 1.5	 bl
2	 6	 0	 x	 LineStimuli//1.5/stimNo138r0c0v1.5.jpg	 r	 3.889	 GoodTrial	 1.5	 bl
3	 6	 0	 x	 LineStimuli//1.5/stimNo159r0c0v1.5.jpg	 r	 5.969	 GoodTrial	 1.5	 bl
4	 6	 0	 x	 LineStimuli//1.5/stimNo143r0c0v1.5.jpg	 r	 5.641	 GoodTrial	 1.5	 bl
5	 6	 1	 left	 LineStimuli//1.5/stimNo120r14c2v1.5.jpg	 r	 4.924	 GoodTrial	 1.5	 bl
6	 6	 0	 x	 LineStimuli//1.5/stimNo160r0c0v1.5.jpg	 r	 7.607	 GoodTrial	 1.5	 bl
7	 6	 1	 left	 LineStimuli//1.5/stimNo94r10c6v1.5.jpg	 r	 5.155	 GoodTrial	 1.5	 bl
8	 6	 1	 right	 LineStimuli//1.5/stimNo101r5c20v1.5.jpg	 l	 10.130	 GoodTrial	 1.5	 bl
9	 6	 1	 right	 LineStimuli//1.5/stimNo86r6c16v1.5.jpg	 l	 8.290	 GoodTrial	 1.5	 bl
10	 6	 0	 x	 LineStimuli//1.5/stimNo123r0c0v1.5.jpg	 r	 20.357	 GoodTrial	 1.5	 bl
11	 6	 1	 left	 LineStimuli//1.5/stimNo112r9c5v1.5.jpg	 r	 19.579	 GoodTrial	 1.5	 bl
12	 6	 0	 x	 LineStimuli//1.5/stimNo134r0c0v1.5.jpg	 r	 17.649	 GoodTrial	 1.5	 bl
13	 6	 0	 x	 LineStimuli//1.5/stimNo121r0c0v1.5.jpg	 r	 16.362	 GoodTrial	 1.5	 bl
14	 6	 0	 x	 LineStimuli//1.5/stimNo129r0c0v1.5.jpg	 r	 14.800	 GoodTrial	 1.5	 bl
15	 6	 0	 x	 LineStimuli//1.5/stimNo136r0c0v1.5.jpg	 r	 14.490	 GoodTrial	 1.5	 bl
16	 6	 1	 left	 LineStimuli//1.5/stimNo91r9c3v1.5.jpg	 r	 10.780	 GoodTrial	 1.5	 bl
17	 6	 1	 left	 LineStimuli//1.5/stimNo114r4c4v1.5.jpg	 l	 7.233	 GoodTrial	 1.5	 bl
18	 6	 1	 right	 LineStimuli//1.5/stimNo107r2c19v1.5.jpg	 r	 16.712	 GoodTrial	 1.5	 bl
19	 6	 0	 x	 LineStimuli//1.5/stimNo135r0c0v1.5.jpg	 r	 13.609	 GoodTrial	 1.5	 bl
20	 6	 0	 x	 LineStimuli//1.5/stimNo140r0c0v1.5.jpg	 r	 18.598	 GoodTrial	 1.5	 bl
21	 6	 1	 right	 LineStimuli//1.5/stimNo82r11c15v1.5.jpg	 r	 16.776	 GoodTrial	 1.5	 bl
22	 6	 0	 x	 LineStimuli//1.5/stimNo127r0c0v1.5.jpg	 r	 15.128	 GoodTrial	 1.5	 bl
23	 6	 1	 left	 LineStimuli//1.5/stimNo106r3c7v1.5.jpg	 r	 9.257	 GoodTrial	 1.5	 bl
24	 6	 0	 x	 LineStimuli//1.5/stimNo146r0c0v1.5.jpg	 r	 25.645	 GoodTrial	 1.5	 bl
25	 6	 1	 right	 LineStimuli//1.5/stimNo98r8c21v1.5.jpg	 r	 19.630	 GoodTrial	 1.5	 bl
26	 6	 1	 left	 LineStimuli//1.5/stimNo116r7c7v1.5.jpg	 l	 10.831	 GoodTrial	 1.5	 bl
27	 6	 0	 x	 LineStimuli//1.5/stimNo147r0c0v1.5.jpg	 r	 19.932	 GoodTrial	 1.5	 bl
28	 6	 0	 x	 LineStimuli//1.5/stimNo145r0c0v1.5.jpg	 r	 20.416	 GoodTrial	 1.5	 bl
29	 6	 0	 x	 LineStimuli//1.5/stimNo154r0c0v1.5.jpg	 r	 17.243	 GoodTrial	 1.5	 bl
30	 6	 1	 left	 LineStimuli//1.5/stimNo96r15c4v1.5.jpg	 l	 10.209	 GoodTrial	 1.5	 bl
31	 6	 0	 x	 LineStimuli//1.5/stimNo139r0c0v1.5.jpg	 r	 16.606	 GoodTrial	 1.5	 bl
32	 6	 0	 x	 LineStimuli//1.5/stimNo131r0c0v1.5.jpg	 r	 19.966	 GoodTrial	 1.5	 bl
33	 6	 0	 x	 LineStimuli//1.5/stimNo128r0c0v1.5.jpg	 r	 17.719	 GoodTrial	 1.5	 bl
34	 6	 1	 right	 LineStimuli//1.5/stimNo100r6c20v1.5.jpg	 r	 10.244	 GoodTrial	 1.5	 bl
35	 6	 0	 x	 LineStimuli//1.5/stimNo125r0c0v1.5.jpg	 r	 12.680	 GoodTrial	 1.5	 bl
36	 6	 1	 right	 LineStimuli//1.5/stimNo104r5c18v1.5.jpg	 r	 18.140	 GoodTrial	 1.5	 bl
37	 6	 1	 left	 LineStimuli//1.5/stimNo109r8c6v1.5.jpg	 r	 13.520	 GoodTrial	 1.5	 bl
38	 6	 1	 right	 LineStimuli//1.5/stimNo84r3c18v1.5.jpg	 l	 31.456	 GoodTrial	 1.5	 bl
39	 6	 1	 left	 LineStimuli//1.5/stimNo102r7c6v1.5.jpg	 l	 16.049	 GoodTrial	 1.5	 bl
40	 6	 0	 x	 LineStimuli//1.5/stimNo132r0c0v1.5.jpg	 r	 25.353	 GoodTrial	 1.5	 bl
41	 6	 1	 left	 LineStimuli//1.5/stimNo99r10c3v1.5.jpg	 r	 19.168	 GoodTrial	 1.5	 bl
42	 6	 0	 x	 LineStimuli//1.5/stimNo141r0c0v1.5.jpg	 r	 28.460	 GoodTrial	 1.5	 bl
43	 6	 1	 left	 LineStimuli//1.5/stimNo85r2c5v1.5.jpg	 l	 6.414	 GoodTrial	 1.5	 bl
44	 6	 1	 left	 LineStimuli//1.5/stimNo110r7c3v1.5.jpg	 r	 32.762	 GoodTrial	 1.5	 bl
45	 6	 1	 left	 LineStimuli//1.5/stimNo87r12c5v1.5.jpg	 l	 2.583	 GoodTrial	 1.5	 bl
46	 6	 0	 x	 LineStimuli//1.5/stimNo158r0c0v1.5.jpg	 r	 10.641	 GoodTrial	 1.5	 bl
47	 6	 0	 x	 LineStimuli//1.5/stimNo133r0c0v1.5.jpg	 r	 12.124	 GoodTrial	 1.5	 bl
48	 6	 1	 right	 LineStimuli//1.5/stimNo103r13c17v1.5.jpg	 l	 2.250	 GoodTrial	 1.5	 bl
49	 6	 0	 x	 LineStimuli//1.5/stimNo150r0c0v1.5.jpg	 r	 7.666	 GoodTrial	 1.5	 bl
50	 6	 1	 left	 LineStimuli//1.5/stimNo88r6c7v1.5.jpg	 r	 5.672	 GoodTrial	 1.5	 bl
1	 7	 1	 right	 LineStimuli//1.8/stimNo83r6c13v1.8.jpg	 l	 10.762	 GoodTrial	 1.8	 bl
2	 7	 1	 left	 LineStimuli//1.8/stimNo106r13c9v1.8.jpg	 l	 14.420	 GoodTrial	 1.8	 bl
3	 7	 0	 x	 LineStimuli//1.8/stimNo141r0c0v1.8.jpg	 r	 9.720	 GoodTrial	 1.8	 bl
4	 7	 1	 right	 LineStimuli//1.8/stimNo102r14c17v1.8.jpg	 l	 1.999	 GoodTrial	 1.8	 bl
5	 7	 1	 right	 LineStimuli//1.8/stimNo104r3c21v1.8.jpg	 l	 2.656	 GoodTrial	 1.8	 bl
6	 7	 0	 x	 LineStimuli//1.8/stimNo122r0c0v1.8.jpg	 r	 8.770	 GoodTrial	 1.8	 bl
7	 7	 1	 right	 LineStimuli//1.8/stimNo100r9c13v1.8.jpg	 l	 2.597	 GoodTrial	 1.8	 bl
8	 7	 0	 x	 LineStimuli//1.8/stimNo125r0c0v1.8.jpg	 r	 8.109	 GoodTrial	 1.8	 bl
9	 7	 0	 x	 LineStimuli//1.8/stimNo132r0c0v1.8.jpg	 r	 10.924	 GoodTrial	 1.8	 bl
10	 7	 1	 left	 LineStimuli//1.8/stimNo87r14c2v1.8.jpg	 r	 5.600	 GoodTrial	 1.8	 bl
11	 7	 0	 x	 LineStimuli//1.8/stimNo149r0c0v1.8.jpg	 r	 7.609	 GoodTrial	 1.8	 bl
12	 7	 1	 left	 LineStimuli//1.8/stimNo91r14c4v1.8.jpg	 l	 2.296	 GoodTrial	 1.8	 bl
13	 7	 0	 x	 LineStimuli//1.8/stimNo123r0c0v1.8.jpg	 r	 9.232	 GoodTrial	 1.8	 bl
14	 7	 0	 x	 LineStimuli//1.8/stimNo158r0c0v1.8.jpg	 r	 7.451	 GoodTrial	 1.8	 bl
15	 7	 0	 x	 LineStimuli//1.8/stimNo160r0c0v1.8.jpg	 r	 9.436	 GoodTrial	 1.8	 bl
16	 7	 0	 x	 LineStimuli//1.8/stimNo150r0c0v1.8.jpg	 r	 7.210	 GoodTrial	 1.8	 bl
17	 7	 0	 x	 LineStimuli//1.8/stimNo153r0c0v1.8.jpg	 r	 5.149	 GoodTrial	 1.8	 bl
18	 7	 0	 x	 LineStimuli//1.8/stimNo130r0c0v1.8.jpg	 r	 6.047	 GoodTrial	 1.8	 bl
19	 7	 0	 x	 LineStimuli//1.8/stimNo139r0c0v1.8.jpg	 r	 8.329	 GoodTrial	 1.8	 bl
20	 7	 0	 x	 LineStimuli//1.8/stimNo121r0c0v1.8.jpg	 r	 9.144	 GoodTrial	 1.8	 bl
21	 7	 1	 left	 LineStimuli//1.8/stimNo116r4c7v1.8.jpg	 r	 7.672	 GoodTrial	 1.8	 bl
22	 7	 0	 x	 LineStimuli//1.8/stimNo143r0c0v1.8.jpg	 r	 7.177	 GoodTrial	 1.8	 bl
23	 7	 0	 x	 LineStimuli//1.8/stimNo133r0c0v1.8.jpg	 r	 12.250	 GoodTrial	 1.8	 bl
24	 7	 0	 x	 LineStimuli//1.8/stimNo140r0c0v1.8.jpg	 r	 5.692	 GoodTrial	 1.8	 bl
25	 7	 0	 x	 LineStimuli//1.8/stimNo124r0c0v1.8.jpg	 r	 11.984	 GoodTrial	 1.8	 bl
26	 7	 0	 x	 LineStimuli//1.8/stimNo157r0c0v1.8.jpg	 x	 0.128	 EARLY_RESPONSE	 1.8	 bl
27	 7	 1	 right	 LineStimuli//1.8/stimNo108r9c21v1.8.jpg	 r	 6.558	 GoodTrial	 1.8	 bl
28	 7	 1	 right	 LineStimuli//1.8/stimNo82r7c18v1.8.jpg	 l	 2.064	 GoodTrial	 1.8	 bl
29	 7	 0	 x	 LineStimuli//1.8/stimNo152r0c0v1.8.jpg	 r	 8.560	 GoodTrial	 1.8	 bl
30	 7	 1	 right	 LineStimuli//1.8/stimNo101r4c13v1.8.jpg	 l	 3.408	 GoodTrial	 1.8	 bl
31	 7	 1	 left	 LineStimuli//1.8/stimNo95r4c9v1.8.jpg	 l	 1.808	 GoodTrial	 1.8	 bl
32	 7	 1	 right	 LineStimuli//1.8/stimNo111r4c21v1.8.jpg	 l	 4.797	 GoodTrial	 1.8	 bl
33	 7	 1	 right	 LineStimuli//1.8/stimNo112r6c15v1.8.jpg	 l	 1.645	 GoodTrial	 1.8	 bl
34	 7	 0	 x	 LineStimuli//1.8/stimNo137r0c0v1.8.jpg	 r	 13.394	 GoodTrial	 1.8	 bl
35	 7	 1	 left	 LineStimuli//1.8/stimNo113r6c7v1.8.jpg	 r	 7.573	 GoodTrial	 1.8	 bl
36	 7	 1	 right	 LineStimuli//1.8/stimNo109r7c17v1.8.jpg	 r	 5.991	 GoodTrial	 1.8	 bl
37	 7	 1	 left	 LineStimuli//1.8/stimNo94r13c8v1.8.jpg	 l	 7.088	 GoodTrial	 1.8	 bl
38	 7	 0	 x	 LineStimuli//1.8/stimNo138r0c0v1.8.jpg	 r	 8.843	 GoodTrial	 1.8	 bl
39	 7	 0	 x	 LineStimuli//1.8/stimNo155r0c0v1.8.jpg	 r	 10.578	 GoodTrial	 1.8	 bl
40	 7	 1	 right	 LineStimuli//1.8/stimNo119r3c21v1.8.jpg	 l	 8.064	 GoodTrial	 1.8	 bl
41	 7	 1	 left	 LineStimuli//1.8/stimNo105r6c5v1.8.jpg	 r	 10.907	 GoodTrial	 1.8	 bl
42	 7	 1	 left	 LineStimuli//1.8/stimNo89r11c6v1.8.jpg	 l	 2.154	 GoodTrial	 1.8	 bl
43	 7	 1	 left	 LineStimuli//1.8/stimNo96r13c2v1.8.jpg	 r	 9.807	 GoodTrial	 1.8	 bl
44	 7	 0	 x	 LineStimuli//1.8/stimNo126r0c0v1.8.jpg	 r	 6.528	 GoodTrial	 1.8	 bl
45	 7	 1	 left	 LineStimuli//1.8/stimNo81r6c8v1.8.jpg	 l	 2.715	 GoodTrial	 1.8	 bl
46	 7	 0	 x	 LineStimuli//1.8/stimNo151r0c0v1.8.jpg	 r	 7.128	 GoodTrial	 1.8	 bl
47	 7	 0	 x	 LineStimuli//1.8/stimNo131r0c0v1.8.jpg	 r	 7.968	 GoodTrial	 1.8	 bl
48	 7	 1	 left	 LineStimuli//1.8/stimNo103r15c10v1.8.jpg	 r	 6.009	 GoodTrial	 1.8	 bl
49	 7	 0	 x	 LineStimuli//1.8/stimNo136r0c0v1.8.jpg	 r	 7.114	 GoodTrial	 1.8	 bl
50	 7	 1	 left	 LineStimuli//1.8/stimNo120r14c9v1.8.jpg	 l	 5.312	 GoodTrial	 1.8	 bl
