Trial	Block	Target_pr	Target_side	Name	Key	RT	Message	Block_Type	Condition
1	 1	 1	 right	 LineStimuli//allStim/stimNo112r10c16v4.3.jpg	 l	 29.897	 GoodTrial	 allStim	 ra
2	 1	 1	 left	 LineStimuli//allStim/stimNo113r6c7v1.8.jpg	 l	 48.545	 GoodTrial	 allStim	 ra
3	 1	 1	 left	 LineStimuli//allStim/stimNo93r8c2v3.8.jpg	 l	 42.367	 GoodTrial	 allStim	 ra
4	 1	 1	 left	 LineStimuli//allStim/stimNo96r13c2v1.8.jpg	 x	 0.000	 GoodTrial	 allStim	 ra
5	 1	 1	 left	 LineStimuli//allStim/stimNo108r13c2v3.3.jpg	 l	 36.428	 GoodTrial	 allStim	 ra
6	 1	 0	 x	 LineStimuli//allStim/stimNo147r0c0v2.8.jpg	 r	 34.601	 GoodTrial	 allStim	 ra
7	 1	 0	 x	 LineStimuli//allStim/stimNo129r0c0v3.8.jpg	 r	 47.206	 GoodTrial	 allStim	 ra
8	 1	 1	 right	 LineStimuli//allStim/stimNo106r13c20v2.8.jpg	 l	 52.481	 GoodTrial	 allStim	 ra
9	 1	 1	 left	 LineStimuli//allStim/stimNo86r8c9v2.3.jpg	 l	 23.407	 GoodTrial	 allStim	 ra
10	 1	 0	 x	 LineStimuli//allStim/stimNo130r0c0v1.8.jpg	 r	 58.684	 GoodTrial	 allStim	 ra
11	 1	 1	 left	 LineStimuli//allStim/stimNo110r4c7v1.8.jpg	 r	 35.840	 GoodTrial	 allStim	 ra
12	 1	 0	 x	 LineStimuli//allStim/stimNo130r0c0v3.8.jpg	 r	 38.896	 GoodTrial	 allStim	 ra
13	 1	 0	 x	 LineStimuli//allStim/stimNo128r0c0v3.8.jpg	 r	 50.835	 GoodTrial	 allStim	 ra
14	 1	 1	 left	 LineStimuli//allStim/stimNo83r9c9v3.8.jpg	 l	 10.852	 GoodTrial	 allStim	 ra
15	 1	 0	 x	 LineStimuli//allStim/stimNo141r0c0v1.8.jpg	 x	 0.000	 GoodTrial	 allStim	 ra
16	 1	 1	 right	 LineStimuli//allStim/stimNo97r15c18v1.8.jpg	 l	 42.836	 GoodTrial	 allStim	 ra
17	 1	 1	 right	 LineStimuli//allStim/stimNo118r11c15v1.8.jpg	 r	 41.841	 GoodTrial	 allStim	 ra
18	 1	 1	 right	 LineStimuli//allStim/stimNo110r7c14v2.8.jpg	 l	 23.587	 GoodTrial	 allStim	 ra
19	 1	 1	 right	 LineStimuli//allStim/stimNo90r14c21v2.3.jpg	 l	 15.875	 GoodTrial	 allStim	 ra
20	 1	 1	 right	 LineStimuli//allStim/stimNo114r10c14v3.8.jpg	 l	 5.904	 GoodTrial	 allStim	 ra
21	 1	 1	 right	 LineStimuli//allStim/stimNo87r13c19v2.3.jpg	 l	 29.480	 GoodTrial	 allStim	 ra
22	 1	 0	 x	 LineStimuli//allStim/stimNo135r0c0v2.3.jpg	 r	 54.937	 GoodTrial	 allStim	 ra
23	 1	 1	 right	 LineStimuli//allStim/stimNo86r6c16v1.5.jpg	 l	 27.353	 GoodTrial	 allStim	 ra
24	 1	 0	 x	 LineStimuli//allStim/stimNo133r0c0v3.8.jpg	 r	 42.463	 GoodTrial	 allStim	 ra
25	 1	 0	 x	 LineStimuli//allStim/stimNo134r0c0v1.5.jpg	 x	 0.000	 GoodTrial	 allStim	 ra
26	 1	 1	 right	 LineStimuli//allStim/stimNo96r4c19v4.3.jpg	 l	 6.059	 GoodTrial	 allStim	 ra
27	 1	 0	 x	 LineStimuli//allStim/stimNo142r0c0v3.3.jpg	 r	 13.838	 GoodTrial	 allStim	 ra
28	 1	 0	 x	 LineStimuli//allStim/stimNo132r0c0v2.3.jpg	 r	 23.883	 GoodTrial	 allStim	 ra
29	 1	 1	 left	 LineStimuli//allStim/stimNo88r15c9v1.8.jpg	 l	 20.314	 GoodTrial	 allStim	 ra
30	 1	 1	 right	 LineStimuli//allStim/stimNo96r2c13v3.8.jpg	 l	 2.593	 GoodTrial	 allStim	 ra
31	 1	 1	 right	 LineStimuli//allStim/stimNo110r15c19v2.3.jpg	 l	 4.468	 GoodTrial	 allStim	 ra
32	 1	 0	 x	 LineStimuli//allStim/stimNo159r0c0v4.3.jpg	 r	 7.729	 GoodTrial	 allStim	 ra
33	 1	 0	 x	 LineStimuli//allStim/stimNo159r0c0v2.8.jpg	 r	 11.391	 GoodTrial	 allStim	 ra
34	 1	 0	 x	 LineStimuli//allStim/stimNo150r0c0v3.3.jpg	 r	 10.121	 GoodTrial	 allStim	 ra
35	 1	 0	 x	 LineStimuli//allStim/stimNo157r0c0v1.8.jpg	 r	 18.418	 GoodTrial	 allStim	 ra
36	 1	 0	 x	 LineStimuli//allStim/stimNo122r0c0v3.3.jpg	 r	 11.240	 GoodTrial	 allStim	 ra
37	 1	 0	 x	 LineStimuli//allStim/stimNo151r0c0v2.8.jpg	 r	 15.315	 GoodTrial	 allStim	 ra
38	 1	 1	 left	 LineStimuli//allStim/stimNo93r3c5v3.3.jpg	 l	 2.181	 GoodTrial	 allStim	 ra
39	 1	 0	 x	 LineStimuli//allStim/stimNo136r0c0v1.5.jpg	 r	 38.734	 GoodTrial	 allStim	 ra
40	 1	 1	 right	 LineStimuli//allStim/stimNo107r11c15v2.3.jpg	 l	 15.192	 GoodTrial	 allStim	 ra
41	 1	 0	 x	 LineStimuli//allStim/stimNo122r0c0v3.8.jpg	 r	 14.778	 GoodTrial	 allStim	 ra
42	 1	 1	 left	 LineStimuli//allStim/stimNo120r14c2v1.5.jpg	 r	 38.629	 GoodTrial	 allStim	 ra
43	 1	 0	 x	 LineStimuli//allStim/stimNo150r0c0v3.8.jpg	 r	 18.024	 GoodTrial	 allStim	 ra
44	 1	 0	 x	 LineStimuli//allStim/stimNo132r0c0v2.8.jpg	 r	 28.297	 GoodTrial	 allStim	 ra
45	 1	 0	 x	 LineStimuli//allStim/stimNo145r0c0v1.5.jpg	 r	 43.757	 GoodTrial	 allStim	 ra
46	 1	 1	 left	 LineStimuli//allStim/stimNo109r11c8v3.8.jpg	 l	 3.108	 GoodTrial	 allStim	 ra
47	 1	 0	 x	 LineStimuli//allStim/stimNo139r0c0v1.8.jpg	 r	 44.967	 GoodTrial	 allStim	 ra
48	 1	 1	 left	 LineStimuli//allStim/stimNo83r12c4v2.8.jpg	 l	 3.070	 GoodTrial	 allStim	 ra
49	 1	 1	 left	 LineStimuli//allStim/stimNo100r8c3v4.3.jpg	 l	 2.320	 GoodTrial	 allStim	 ra
50	 1	 1	 left	 LineStimuli//allStim/stimNo113r3c8v2.3.jpg	 l	 2.755	 GoodTrial	 allStim	 ra
1	 2	 0	 x	 LineStimuli//allStim/stimNo132r0c0v2.3.jpg	 r	 14.125	 GoodTrial	 allStim	 ra
2	 2	 0	 x	 LineStimuli//allStim/stimNo149r0c0v3.8.jpg	 r	 9.272	 GoodTrial	 allStim	 ra
3	 2	 0	 x	 LineStimuli//allStim/stimNo134r0c0v1.5.jpg	 r	 20.615	 GoodTrial	 allStim	 ra
4	 2	 0	 x	 LineStimuli//allStim/stimNo131r0c0v3.8.jpg	 r	 5.652	 GoodTrial	 allStim	 ra
5	 2	 1	 right	 LineStimuli//allStim/stimNo102r6c18v2.3.jpg	 l	 3.463	 GoodTrial	 allStim	 ra
6	 2	 1	 left	 LineStimuli//allStim/stimNo116r4c7v1.8.jpg	 r	 21.124	 GoodTrial	 allStim	 ra
7	 2	 1	 right	 LineStimuli//allStim/stimNo83r6c13v1.8.jpg	 l	 21.510	 GoodTrial	 allStim	 ra
8	 2	 1	 left	 LineStimuli//allStim/stimNo96r15c4v1.5.jpg	 l	 23.353	 GoodTrial	 allStim	 ra
9	 2	 1	 left	 LineStimuli//allStim/stimNo97r15c6v1.5.jpg	 l	 7.504	 GoodTrial	 allStim	 ra
10	 2	 0	 x	 LineStimuli//allStim/stimNo135r0c0v4.3.jpg	 r	 8.112	 GoodTrial	 allStim	 ra
11	 2	 1	 right	 LineStimuli//allStim/stimNo91r10c16v3.8.jpg	 l	 2.148	 GoodTrial	 allStim	 ra
12	 2	 1	 left	 LineStimuli//allStim/stimNo116r4c7v2.8.jpg	 l	 2.807	 GoodTrial	 allStim	 ra
13	 2	 0	 x	 LineStimuli//allStim/stimNo149r0c0v1.8.jpg	 r	 23.823	 GoodTrial	 allStim	 ra
14	 2	 1	 left	 LineStimuli//allStim/stimNo117r2c5v3.3.jpg	 l	 2.125	 GoodTrial	 allStim	 ra
15	 2	 1	 left	 LineStimuli//allStim/stimNo104r4c4v3.3.jpg	 l	 1.995	 GoodTrial	 allStim	 ra
16	 2	 0	 x	 LineStimuli//allStim/stimNo127r0c0v2.8.jpg	 r	 11.033	 GoodTrial	 allStim	 ra
17	 2	 0	 x	 LineStimuli//allStim/stimNo124r0c0v2.3.jpg	 r	 8.760	 GoodTrial	 allStim	 ra
18	 2	 1	 right	 LineStimuli//allStim/stimNo81r10c14v4.3.jpg	 l	 1.800	 GoodTrial	 allStim	 ra
19	 2	 1	 left	 LineStimuli//allStim/stimNo106r13c9v1.8.jpg	 l	 3.776	 GoodTrial	 allStim	 ra
20	 2	 1	 right	 LineStimuli//allStim/stimNo114r8c13v1.8.jpg	 l	 2.800	 GoodTrial	 allStim	 ra
21	 2	 0	 x	 LineStimuli//allStim/stimNo147r0c0v4.3.jpg	 r	 7.384	 GoodTrial	 allStim	 ra
22	 2	 1	 left	 LineStimuli//allStim/stimNo89r8c9v1.5.jpg	 r	 29.228	 GoodTrial	 allStim	 ra
23	 2	 0	 x	 LineStimuli//allStim/stimNo149r0c0v2.3.jpg	 r	 32.867	 GoodTrial	 allStim	 ra
24	 2	 1	 left	 LineStimuli//allStim/stimNo95r15c8v3.3.jpg	 l	 2.964	 GoodTrial	 allStim	 ra
25	 2	 1	 left	 LineStimuli//allStim/stimNo94r13c7v2.8.jpg	 l	 1.872	 GoodTrial	 allStim	 ra
26	 2	 0	 x	 LineStimuli//allStim/stimNo152r0c0v2.3.jpg	 r	 11.895	 GoodTrial	 allStim	 ra
27	 2	 1	 left	 LineStimuli//allStim/stimNo114r7c8v2.3.jpg	 l	 2.202	 GoodTrial	 allStim	 ra
28	 2	 1	 left	 LineStimuli//allStim/stimNo112r3c2v2.3.jpg	 l	 2.533	 GoodTrial	 allStim	 ra
29	 2	 1	 left	 LineStimuli//allStim/stimNo116r7c7v1.5.jpg	 l	 15.671	 GoodTrial	 allStim	 ra
30	 2	 1	 right	 LineStimuli//allStim/stimNo117r6c17v3.8.jpg	 l	 1.849	 GoodTrial	 allStim	 ra
31	 2	 0	 x	 LineStimuli//allStim/stimNo133r0c0v1.5.jpg	 r	 29.637	 GoodTrial	 allStim	 ra
32	 2	 0	 x	 LineStimuli//allStim/stimNo160r0c0v1.5.jpg	 r	 35.248	 GoodTrial	 allStim	 ra
33	 2	 1	 right	 LineStimuli//allStim/stimNo112r5c15v3.3.jpg	 l	 1.985	 GoodTrial	 allStim	 ra
34	 2	 0	 x	 LineStimuli//allStim/stimNo131r0c0v1.8.jpg	 r	 18.625	 GoodTrial	 allStim	 ra
35	 2	 0	 x	 LineStimuli//allStim/stimNo150r0c0v2.3.jpg	 r	 9.156	 GoodTrial	 allStim	 ra
36	 2	 0	 x	 LineStimuli//allStim/stimNo128r0c0v2.3.jpg	 r	 7.801	 GoodTrial	 allStim	 ra
37	 2	 0	 x	 LineStimuli//allStim/stimNo160r0c0v2.8.jpg	 r	 7.718	 GoodTrial	 allStim	 ra
38	 2	 0	 x	 LineStimuli//allStim/stimNo139r0c0v1.5.jpg	 r	 39.431	 GoodTrial	 allStim	 ra
39	 2	 0	 x	 LineStimuli//allStim/stimNo152r0c0v4.3.jpg	 r	 8.903	 GoodTrial	 allStim	 ra
40	 2	 0	 x	 LineStimuli//allStim/stimNo159r0c0v2.8.jpg	 r	 6.549	 GoodTrial	 allStim	 ra
41	 2	 0	 x	 LineStimuli//allStim/stimNo144r0c0v3.3.jpg	 r	 4.717	 GoodTrial	 allStim	 ra
42	 2	 0	 x	 LineStimuli//allStim/stimNo154r0c0v2.3.jpg	 r	 13.895	 GoodTrial	 allStim	 ra
43	 2	 0	 x	 LineStimuli//allStim/stimNo147r0c0v1.8.jpg	 r	 7.840	 GoodTrial	 allStim	 ra
44	 2	 0	 x	 LineStimuli//allStim/stimNo146r0c0v4.3.jpg	 r	 9.107	 GoodTrial	 allStim	 ra
45	 2	 1	 right	 LineStimuli//allStim/stimNo99r2c13v3.8.jpg	 l	 3.276	 GoodTrial	 allStim	 ra
46	 2	 1	 left	 LineStimuli//allStim/stimNo87r3c5v4.3.jpg	 l	 1.976	 GoodTrial	 allStim	 ra
47	 2	 0	 x	 LineStimuli//allStim/stimNo154r0c0v3.8.jpg	 r	 6.857	 GoodTrial	 allStim	 ra
48	 2	 1	 left	 LineStimuli//allStim/stimNo83r8c3v3.3.jpg	 l	 1.834	 GoodTrial	 allStim	 ra
49	 2	 1	 right	 LineStimuli//allStim/stimNo104r3c21v1.8.jpg	 x	 1.384	 GoodTrial	 allStim	 ra
50	 2	 1	 right	 LineStimuli//allStim/stimNo85r3c13v3.8.jpg	 l	 1.791	 GoodTrial	 allStim	 ra
1	 3	 0	 x	 LineStimuli//allStim/stimNo151r0c0v2.8.jpg	 r	 8.815	 GoodTrial	 allStim	 ra
2	 3	 0	 x	 LineStimuli//allStim/stimNo133r0c0v3.8.jpg	 r	 4.088	 GoodTrial	 allStim	 ra
3	 3	 1	 right	 LineStimuli//allStim/stimNo102r10c17v3.8.jpg	 l	 1.720	 GoodTrial	 allStim	 ra
4	 3	 0	 x	 LineStimuli//allStim/stimNo152r0c0v2.3.jpg	 r	 5.929	 GoodTrial	 allStim	 ra
5	 3	 0	 x	 LineStimuli//allStim/stimNo133r0c0v3.3.jpg	 r	 6.273	 GoodTrial	 allStim	 ra
6	 3	 0	 x	 LineStimuli//allStim/stimNo148r0c0v2.8.jpg	 r	 5.025	 GoodTrial	 allStim	 ra
7	 3	 0	 x	 LineStimuli//allStim/stimNo159r0c0v1.5.jpg	 r	 22.448	 GoodTrial	 allStim	 ra
8	 3	 0	 x	 LineStimuli//allStim/stimNo129r0c0v3.8.jpg	 r	 5.633	 GoodTrial	 allStim	 ra
9	 3	 0	 x	 LineStimuli//allStim/stimNo150r0c0v3.3.jpg	 r	 6.309	 GoodTrial	 allStim	 ra
10	 3	 1	 left	 LineStimuli//allStim/stimNo106r9c9v3.3.jpg	 l	 1.920	 GoodTrial	 allStim	 ra
11	 3	 0	 x	 LineStimuli//allStim/stimNo128r0c0v2.3.jpg	 r	 6.734	 GoodTrial	 allStim	 ra
12	 3	 1	 left	 LineStimuli//allStim/stimNo119r3c2v2.3.jpg	 l	 5.235	 GoodTrial	 allStim	 ra
13	 3	 0	 x	 LineStimuli//allStim/stimNo131r0c0v4.3.jpg	 r	 4.367	 GoodTrial	 allStim	 ra
14	 3	 0	 x	 LineStimuli//allStim/stimNo160r0c0v4.3.jpg	 r	 4.809	 GoodTrial	 allStim	 ra
15	 3	 0	 x	 LineStimuli//allStim/stimNo152r0c0v1.8.jpg	 r	 20.998	 GoodTrial	 allStim	 ra
16	 3	 0	 x	 LineStimuli//allStim/stimNo137r0c0v3.8.jpg	 x	 4.416	 GoodTrial	 allStim	 ra
17	 3	 0	 x	 LineStimuli//allStim/stimNo129r0c0v2.3.jpg	 r	 8.008	 GoodTrial	 allStim	 ra
18	 3	 1	 right	 LineStimuli//allStim/stimNo92r2c20v4.3.jpg	 l	 2.547	 GoodTrial	 allStim	 ra
19	 3	 0	 x	 LineStimuli//allStim/stimNo137r0c0v1.5.jpg	 r	 21.198	 GoodTrial	 allStim	 ra
20	 3	 0	 x	 LineStimuli//allStim/stimNo121r0c0v2.8.jpg	 r	 11.752	 GoodTrial	 allStim	 ra
21	 3	 1	 left	 LineStimuli//allStim/stimNo87r12c5v1.5.jpg	 r	 13.230	 GoodTrial	 allStim	 ra
22	 3	 0	 x	 LineStimuli//allStim/stimNo153r0c0v2.8.jpg	 r	 13.504	 GoodTrial	 allStim	 ra
23	 3	 1	 right	 LineStimuli//allStim/stimNo87r6c13v3.8.jpg	 l	 2.213	 GoodTrial	 allStim	 ra
24	 3	 0	 x	 LineStimuli//allStim/stimNo141r0c0v3.8.jpg	 r	 5.727	 GoodTrial	 allStim	 ra
25	 3	 0	 x	 LineStimuli//allStim/stimNo122r0c0v1.5.jpg	 r	 25.616	 GoodTrial	 allStim	 ra
26	 3	 0	 x	 LineStimuli//allStim/stimNo158r0c0v1.8.jpg	 r	 6.731	 GoodTrial	 allStim	 ra
27	 3	 0	 x	 LineStimuli//allStim/stimNo124r0c0v3.3.jpg	 r	 5.061	 GoodTrial	 allStim	 ra
28	 3	 1	 right	 LineStimuli//allStim/stimNo114r8c19v2.8.jpg	 l	 2.022	 GoodTrial	 allStim	 ra
29	 3	 1	 right	 LineStimuli//allStim/stimNo102r13c13v3.3.jpg	 l	 1.861	 GoodTrial	 allStim	 ra
30	 3	 0	 x	 LineStimuli//allStim/stimNo132r0c0v3.8.jpg	 r	 4.643	 GoodTrial	 allStim	 ra
31	 3	 1	 left	 LineStimuli//allStim/stimNo101r5c5v4.3.jpg	 l	 1.768	 GoodTrial	 allStim	 ra
32	 3	 1	 left	 LineStimuli//allStim/stimNo86r7c7v3.8.jpg	 l	 1.784	 GoodTrial	 allStim	 ra
33	 3	 1	 left	 LineStimuli//allStim/stimNo113r14c9v3.8.jpg	 l	 1.720	 GoodTrial	 allStim	 ra
34	 3	 1	 right	 LineStimuli//allStim/stimNo118r11c13v4.3.jpg	 l	 1.637	 GoodTrial	 allStim	 ra
35	 3	 1	 left	 LineStimuli//allStim/stimNo86r5c7v3.3.jpg	 l	 2.171	 GoodTrial	 allStim	 ra
36	 3	 1	 left	 LineStimuli//allStim/stimNo83r9c9v3.8.jpg	 l	 1.757	 GoodTrial	 allStim	 ra
37	 3	 1	 left	 LineStimuli//allStim/stimNo95r4c9v1.8.jpg	 l	 2.614	 GoodTrial	 allStim	 ra
38	 3	 0	 x	 LineStimuli//allStim/stimNo156r0c0v3.3.jpg	 r	 6.679	 GoodTrial	 allStim	 ra
39	 3	 1	 right	 LineStimuli//allStim/stimNo115r9c14v2.8.jpg	 l	 1.807	 GoodTrial	 allStim	 ra
40	 3	 1	 left	 LineStimuli//allStim/stimNo92r10c7v3.3.jpg	 l	 1.967	 GoodTrial	 allStim	 ra
41	 3	 1	 left	 LineStimuli//allStim/stimNo107r5c4v1.8.jpg	 l	 2.367	 GoodTrial	 allStim	 ra
42	 3	 1	 left	 LineStimuli//allStim/stimNo115r14c10v3.8.jpg	 l	 1.750	 GoodTrial	 allStim	 ra
43	 3	 0	 x	 LineStimuli//allStim/stimNo133r0c0v2.3.jpg	 r	 8.136	 GoodTrial	 allStim	 ra
44	 3	 1	 left	 LineStimuli//allStim/stimNo87r11c8v2.8.jpg	 l	 1.894	 GoodTrial	 allStim	 ra
45	 3	 0	 x	 LineStimuli//allStim/stimNo160r0c0v1.8.jpg	 r	 5.314	 GoodTrial	 allStim	 ra
46	 3	 1	 left	 LineStimuli//allStim/stimNo87r3c5v4.3.jpg	 l	 1.786	 GoodTrial	 allStim	 ra
47	 3	 1	 right	 LineStimuli//allStim/stimNo88r10c17v3.8.jpg	 l	 2.296	 GoodTrial	 allStim	 ra
48	 3	 1	 right	 LineStimuli//allStim/stimNo111r15c20v3.8.jpg	 l	 2.511	 GoodTrial	 allStim	 ra
49	 3	 1	 right	 LineStimuli//allStim/stimNo94r6c17v3.8.jpg	 l	 1.914	 GoodTrial	 allStim	 ra
50	 3	 1	 right	 LineStimuli//allStim/stimNo101r8c14v2.3.jpg	 l	 1.792	 GoodTrial	 allStim	 ra
1	 4	 1	 right	 LineStimuli//allStim/stimNo101r5c20v1.5.jpg	 r	 8.450	 GoodTrial	 allStim	 ra
2	 4	 0	 x	 LineStimuli//allStim/stimNo121r0c0v1.5.jpg	 r	 10.056	 GoodTrial	 allStim	 ra
3	 4	 1	 left	 LineStimuli//allStim/stimNo114r4c4v1.5.jpg	 r	 12.994	 GoodTrial	 allStim	 ra
4	 4	 0	 x	 LineStimuli//allStim/stimNo148r0c0v3.8.jpg	 r	 5.422	 GoodTrial	 allStim	 ra
5	 4	 0	 x	 LineStimuli//allStim/stimNo153r0c0v2.3.jpg	 r	 11.121	 GoodTrial	 allStim	 ra
6	 4	 1	 left	 LineStimuli//allStim/stimNo104r12c8v3.8.jpg	 l	 2.040	 GoodTrial	 allStim	 ra
7	 4	 0	 x	 LineStimuli//allStim/stimNo157r0c0v3.3.jpg	 r	 6.735	 GoodTrial	 allStim	 ra
8	 4	 0	 x	 LineStimuli//allStim/stimNo126r0c0v2.3.jpg	 r	 6.658	 GoodTrial	 allStim	 ra
9	 4	 0	 x	 LineStimuli//allStim/stimNo156r0c0v1.8.jpg	 r	 12.277	 GoodTrial	 allStim	 ra
10	 4	 1	 left	 LineStimuli//allStim/stimNo98r2c9v3.8.jpg	 l	 1.945	 GoodTrial	 allStim	 ra
11	 4	 1	 right	 LineStimuli//allStim/stimNo101r12c16v2.8.jpg	 l	 3.097	 GoodTrial	 allStim	 ra
12	 4	 0	 x	 LineStimuli//allStim/stimNo133r0c0v2.3.jpg	 r	 9.760	 GoodTrial	 allStim	 ra
13	 4	 0	 x	 LineStimuli//allStim/stimNo160r0c0v4.3.jpg	 r	 5.065	 GoodTrial	 allStim	 ra
14	 4	 0	 x	 LineStimuli//allStim/stimNo159r0c0v3.3.jpg	 r	 4.657	 GoodTrial	 allStim	 ra
15	 4	 1	 right	 LineStimuli//allStim/stimNo91r12c16v3.3.jpg	 l	 1.850	 GoodTrial	 allStim	 ra
16	 4	 0	 x	 LineStimuli//allStim/stimNo138r0c0v3.3.jpg	 r	 5.673	 GoodTrial	 allStim	 ra
17	 4	 1	 left	 LineStimuli//allStim/stimNo93r3c5v3.3.jpg	 l	 1.806	 GoodTrial	 allStim	 ra
18	 4	 1	 right	 LineStimuli//allStim/stimNo119r3c21v1.8.jpg	 l	 3.073	 GoodTrial	 allStim	 ra
19	 4	 0	 x	 LineStimuli//allStim/stimNo137r0c0v3.3.jpg	 r	 5.072	 GoodTrial	 allStim	 ra
20	 4	 0	 x	 LineStimuli//allStim/stimNo124r0c0v1.8.jpg	 r	 7.045	 GoodTrial	 allStim	 ra
21	 4	 1	 right	 LineStimuli//allStim/stimNo112r10c16v4.3.jpg	 l	 1.717	 GoodTrial	 allStim	 ra
22	 4	 0	 x	 LineStimuli//allStim/stimNo154r0c0v3.8.jpg	 r	 4.791	 GoodTrial	 allStim	 ra
23	 4	 0	 x	 LineStimuli//allStim/stimNo129r0c0v1.5.jpg	 r	 12.277	 GoodTrial	 allStim	 ra
24	 4	 0	 x	 LineStimuli//allStim/stimNo132r0c0v2.3.jpg	 r	 8.456	 GoodTrial	 allStim	 ra
25	 4	 1	 left	 LineStimuli//allStim/stimNo88r15c9v1.8.jpg	 l	 8.635	 GoodTrial	 allStim	 ra
26	 4	 0	 x	 LineStimuli//allStim/stimNo123r0c0v1.5.jpg	 r	 13.015	 GoodTrial	 allStim	 ra
27	 4	 0	 x	 LineStimuli//allStim/stimNo157r0c0v2.8.jpg	 r	 5.655	 GoodTrial	 allStim	 ra
28	 4	 1	 left	 LineStimuli//allStim/stimNo102r7c6v1.5.jpg	 r	 12.878	 GoodTrial	 allStim	 ra
29	 4	 1	 left	 LineStimuli//allStim/stimNo120r5c3v3.8.jpg	 l	 1.801	 GoodTrial	 allStim	 ra
30	 4	 0	 x	 LineStimuli//allStim/stimNo121r0c0v1.8.jpg	 r	 17.079	 GoodTrial	 allStim	 ra
31	 4	 0	 x	 LineStimuli//allStim/stimNo150r0c0v2.8.jpg	 r	 5.621	 GoodTrial	 allStim	 ra
32	 4	 0	 x	 LineStimuli//allStim/stimNo147r0c0v4.3.jpg	 r	 4.670	 GoodTrial	 allStim	 ra
33	 4	 1	 right	 LineStimuli//allStim/stimNo117r10c21v4.3.jpg	 l	 1.802	 GoodTrial	 allStim	 ra
34	 4	 0	 x	 LineStimuli//allStim/stimNo154r0c0v2.3.jpg	 r	 7.680	 GoodTrial	 allStim	 ra
35	 4	 1	 left	 LineStimuli//allStim/stimNo117r11c8v2.3.jpg	 l	 2.371	 GoodTrial	 allStim	 ra
36	 4	 1	 right	 LineStimuli//allStim/stimNo111r7c17v1.5.jpg	 r	 9.988	 GoodTrial	 allStim	 ra
37	 4	 1	 right	 LineStimuli//allStim/stimNo98r8c21v1.5.jpg	 r	 21.813	 GoodTrial	 allStim	 ra
38	 4	 0	 x	 LineStimuli//allStim/stimNo152r0c0v1.5.jpg	 r	 20.960	 GoodTrial	 allStim	 ra
39	 4	 1	 left	 LineStimuli//allStim/stimNo97r15c9v3.8.jpg	 l	 2.392	 GoodTrial	 allStim	 ra
40	 4	 1	 right	 LineStimuli//allStim/stimNo118r3c16v3.3.jpg	 l	 2.327	 GoodTrial	 allStim	 ra
41	 4	 1	 left	 LineStimuli//allStim/stimNo111r15c7v3.3.jpg	 l	 2.125	 GoodTrial	 allStim	 ra
42	 4	 0	 x	 LineStimuli//allStim/stimNo124r0c0v2.3.jpg	 r	 7.583	 GoodTrial	 allStim	 ra
43	 4	 1	 right	 LineStimuli//allStim/stimNo81r8c14v2.8.jpg	 l	 1.693	 GoodTrial	 allStim	 ra
44	 4	 1	 right	 LineStimuli//allStim/stimNo99r2c13v2.3.jpg	 l	 2.149	 GoodTrial	 allStim	 ra
45	 4	 0	 x	 LineStimuli//allStim/stimNo155r0c0v1.5.jpg	 r	 5.871	 GoodTrial	 allStim	 ra
46	 4	 0	 x	 LineStimuli//allStim/stimNo128r0c0v3.8.jpg	 r	 4.909	 GoodTrial	 allStim	 ra
47	 4	 0	 x	 LineStimuli//allStim/stimNo130r0c0v1.5.jpg	 r	 7.644	 GoodTrial	 allStim	 ra
48	 4	 0	 x	 LineStimuli//allStim/stimNo151r0c0v1.5.jpg	 r	 6.400	 GoodTrial	 allStim	 ra
49	 4	 0	 x	 LineStimuli//allStim/stimNo138r0c0v1.8.jpg	 r	 6.608	 GoodTrial	 allStim	 ra
50	 4	 0	 x	 LineStimuli//allStim/stimNo152r0c0v3.3.jpg	 r	 5.795	 GoodTrial	 allStim	 ra
1	 5	 1	 left	 LineStimuli//allStim/stimNo91r9c3v1.5.jpg	 r	 6.675	 GoodTrial	 allStim	 ra
2	 5	 0	 x	 LineStimuli//allStim/stimNo149r0c0v2.8.jpg	 r	 3.589	 GoodTrial	 allStim	 ra
3	 5	 1	 right	 LineStimuli//allStim/stimNo86r6c16v1.5.jpg	 r	 5.424	 GoodTrial	 allStim	 ra
4	 5	 0	 x	 LineStimuli//allStim/stimNo123r0c0v3.3.jpg	 r	 5.207	 GoodTrial	 allStim	 ra
5	 5	 0	 x	 LineStimuli//allStim/stimNo145r0c0v1.8.jpg	 r	 9.981	 GoodTrial	 allStim	 ra
6	 5	 1	 right	 LineStimuli//allStim/stimNo90r8c17v3.8.jpg	 l	 1.845	 GoodTrial	 allStim	 ra
7	 5	 1	 right	 LineStimuli//allStim/stimNo93r14c18v1.5.jpg	 r	 9.911	 GoodTrial	 allStim	 ra
8	 5	 1	 right	 LineStimuli//allStim/stimNo99r2c13v3.8.jpg	 l	 1.809	 GoodTrial	 allStim	 ra
9	 5	 0	 x	 LineStimuli//allStim/stimNo147r0c0v2.3.jpg	 r	 5.305	 GoodTrial	 allStim	 ra
10	 5	 1	 left	 LineStimuli//allStim/stimNo104r4c4v3.3.jpg	 l	 1.817	 GoodTrial	 allStim	 ra
11	 5	 1	 left	 LineStimuli//allStim/stimNo110r7c9v3.8.jpg	 l	 4.223	 GoodTrial	 allStim	 ra
12	 5	 0	 x	 LineStimuli//allStim/stimNo160r0c0v3.8.jpg	 r	 2.731	 GoodTrial	 allStim	 ra
13	 5	 0	 x	 LineStimuli//allStim/stimNo158r0c0v1.8.jpg	 r	 5.975	 GoodTrial	 allStim	 ra
14	 5	 1	 right	 LineStimuli//allStim/stimNo117r6c17v3.8.jpg	 l	 1.814	 GoodTrial	 allStim	 ra
15	 5	 1	 right	 LineStimuli//allStim/stimNo118r4c17v2.3.jpg	 l	 1.861	 GoodTrial	 allStim	 ra
16	 5	 0	 x	 LineStimuli//allStim/stimNo142r0c0v3.8.jpg	 r	 4.231	 GoodTrial	 allStim	 ra
17	 5	 1	 right	 LineStimuli//allStim/stimNo116r10c14v3.3.jpg	 l	 2.998	 GoodTrial	 allStim	 ra
18	 5	 0	 x	 LineStimuli//allStim/stimNo136r0c0v2.3.jpg	 r	 5.217	 GoodTrial	 allStim	 ra
19	 5	 0	 x	 LineStimuli//allStim/stimNo137r0c0v1.8.jpg	 r	 7.474	 GoodTrial	 allStim	 ra
20	 5	 0	 x	 LineStimuli//allStim/stimNo125r0c0v2.3.jpg	 r	 4.327	 GoodTrial	 allStim	 ra
21	 5	 1	 right	 LineStimuli//allStim/stimNo82r11c15v1.5.jpg	 r	 1.760	 GoodTrial	 allStim	 ra
22	 5	 0	 x	 LineStimuli//allStim/stimNo134r0c0v4.3.jpg	 r	 3.351	 GoodTrial	 allStim	 ra
23	 5	 0	 x	 LineStimuli//allStim/stimNo155r0c0v3.3.jpg	 r	 4.729	 GoodTrial	 allStim	 ra
24	 5	 1	 right	 LineStimuli//allStim/stimNo92r14c21v2.8.jpg	 l	 2.040	 GoodTrial	 allStim	 ra
25	 5	 0	 x	 LineStimuli//allStim/stimNo154r0c0v3.8.jpg	 r	 2.453	 GoodTrial	 allStim	 ra
26	 5	 0	 x	 LineStimuli//allStim/stimNo121r0c0v3.8.jpg	 r	 3.088	 GoodTrial	 allStim	 ra
27	 5	 0	 x	 LineStimuli//allStim/stimNo155r0c0v1.8.jpg	 r	 13.351	 GoodTrial	 allStim	 ra
28	 5	 1	 left	 LineStimuli//allStim/stimNo103r10c4v4.3.jpg	 l	 2.047	 GoodTrial	 allStim	 ra
29	 5	 0	 x	 LineStimuli//allStim/stimNo128r0c0v2.3.jpg	 r	 5.018	 GoodTrial	 allStim	 ra
30	 5	 0	 x	 LineStimuli//allStim/stimNo146r0c0v2.8.jpg	 r	 5.159	 GoodTrial	 allStim	 ra
31	 5	 0	 x	 LineStimuli//allStim/stimNo160r0c0v2.3.jpg	 r	 5.416	 GoodTrial	 allStim	 ra
32	 5	 1	 left	 LineStimuli//allStim/stimNo105r2c6v3.8.jpg	 l	 1.671	 GoodTrial	 allStim	 ra
33	 5	 0	 x	 LineStimuli//allStim/stimNo145r0c0v1.5.jpg	 r	 10.809	 GoodTrial	 allStim	 ra
34	 5	 1	 right	 LineStimuli//allStim/stimNo89r5c21v3.3.jpg	 l	 1.899	 GoodTrial	 allStim	 ra
35	 5	 1	 left	 LineStimuli//allStim/stimNo95r11c9v4.3.jpg	 l	 1.750	 GoodTrial	 allStim	 ra
36	 5	 1	 right	 LineStimuli//allStim/stimNo104r3c21v1.8.jpg	 l	 3.329	 GoodTrial	 allStim	 ra
37	 5	 1	 left	 LineStimuli//allStim/stimNo81r4c3v2.3.jpg	 l	 1.763	 GoodTrial	 allStim	 ra
38	 5	 1	 left	 LineStimuli//allStim/stimNo110r7c3v1.5.jpg	 l	 5.197	 GoodTrial	 allStim	 ra
39	 5	 0	 x	 LineStimuli//allStim/stimNo136r0c0v4.3.jpg	 r	 4.987	 GoodTrial	 allStim	 ra
40	 5	 1	 right	 LineStimuli//allStim/stimNo95r6c14v1.5.jpg	 r	 7.307	 GoodTrial	 allStim	 ra
41	 5	 0	 x	 LineStimuli//allStim/stimNo122r0c0v3.3.jpg	 r	 3.487	 GoodTrial	 allStim	 ra
42	 5	 0	 x	 LineStimuli//allStim/stimNo124r0c0v4.3.jpg	 r	 3.937	 GoodTrial	 allStim	 ra
43	 5	 1	 right	 LineStimuli//allStim/stimNo93r4c16v2.3.jpg	 l	 1.856	 GoodTrial	 allStim	 ra
44	 5	 1	 right	 LineStimuli//allStim/stimNo110r15c19v2.3.jpg	 l	 1.854	 GoodTrial	 allStim	 ra
45	 5	 1	 right	 LineStimuli//allStim/stimNo112r12c16v3.8.jpg	 l	 1.776	 GoodTrial	 allStim	 ra
46	 5	 1	 right	 LineStimuli//allStim/stimNo111r11c21v2.3.jpg	 l	 1.739	 GoodTrial	 allStim	 ra
47	 5	 0	 x	 LineStimuli//allStim/stimNo138r0c0v1.8.jpg	 r	 9.369	 GoodTrial	 allStim	 ra
48	 5	 0	 x	 LineStimuli//allStim/stimNo144r0c0v2.3.jpg	 r	 7.116	 GoodTrial	 allStim	 ra
49	 5	 1	 right	 LineStimuli//allStim/stimNo88r10c17v3.8.jpg	 l	 1.695	 GoodTrial	 allStim	 ra
50	 5	 1	 left	 LineStimuli//allStim/stimNo113r11c7v4.3.jpg	 l	 1.643	 GoodTrial	 allStim	 ra
1	 6	 0	 x	 LineStimuli//allStim/stimNo139r0c0v1.8.jpg	 r	 8.903	 GoodTrial	 allStim	 ra
2	 6	 0	 x	 LineStimuli//allStim/stimNo152r0c0v2.3.jpg	 r	 5.939	 GoodTrial	 allStim	 ra
3	 6	 1	 right	 LineStimuli//allStim/stimNo95r5c21v3.8.jpg	 l	 2.376	 GoodTrial	 allStim	 ra
4	 6	 0	 x	 LineStimuli//allStim/stimNo126r0c0v3.8.jpg	 r	 3.457	 GoodTrial	 allStim	 ra
5	 6	 0	 x	 LineStimuli//allStim/stimNo139r0c0v1.5.jpg	 r	 4.200	 GoodTrial	 allStim	 ra
6	 6	 0	 x	 LineStimuli//allStim/stimNo130r0c0v3.8.jpg	 r	 1.956	 GoodTrial	 allStim	 ra
7	 6	 1	 right	 LineStimuli//allStim/stimNo99r14c18v4.3.jpg	 l	 1.716	 GoodTrial	 allStim	 ra
8	 6	 0	 x	 LineStimuli//allStim/stimNo126r0c0v1.5.jpg	 r	 2.135	 GoodTrial	 allStim	 ra
9	 6	 0	 x	 LineStimuli//allStim/stimNo121r0c0v1.5.jpg	 r	 5.176	 GoodTrial	 allStim	 ra
10	 6	 0	 x	 LineStimuli//allStim/stimNo133r0c0v1.8.jpg	 r	 5.727	 GoodTrial	 allStim	 ra
11	 6	 0	 x	 LineStimuli//allStim/stimNo127r0c0v2.3.jpg	 r	 4.634	 GoodTrial	 allStim	 ra
12	 6	 1	 right	 LineStimuli//allStim/stimNo84r3c18v1.5.jpg	 r	 6.999	 GoodTrial	 allStim	 ra
13	 6	 0	 x	 LineStimuli//allStim/stimNo133r0c0v2.3.jpg	 r	 6.584	 GoodTrial	 allStim	 ra
14	 6	 1	 right	 LineStimuli//allStim/stimNo82r11c15v1.5.jpg	 r	 10.704	 GoodTrial	 allStim	 ra
15	 6	 0	 x	 LineStimuli//allStim/stimNo160r0c0v3.8.jpg	 r	 4.685	 GoodTrial	 allStim	 ra
16	 6	 1	 right	 LineStimuli//allStim/stimNo110r7c14v2.8.jpg	 l	 2.400	 GoodTrial	 allStim	 ra
17	 6	 1	 left	 LineStimuli//allStim/stimNo86r5c7v3.3.jpg	 l	 2.206	 GoodTrial	 allStim	 ra
18	 6	 0	 x	 LineStimuli//allStim/stimNo140r0c0v1.8.jpg	 r	 6.367	 GoodTrial	 allStim	 ra
19	 6	 1	 left	 LineStimuli//allStim/stimNo103r15c10v1.8.jpg	 r	 6.489	 GoodTrial	 allStim	 ra
20	 6	 1	 left	 LineStimuli//allStim/stimNo83r4c2v4.3.jpg	 l	 2.120	 GoodTrial	 allStim	 ra
21	 6	 1	 left	 LineStimuli//allStim/stimNo94r14c9v3.3.jpg	 l	 2.031	 GoodTrial	 allStim	 ra
22	 6	 1	 right	 LineStimuli//allStim/stimNo107r2c19v1.5.jpg	 l	 9.019	 GoodTrial	 allStim	 ra
23	 6	 1	 left	 LineStimuli//allStim/stimNo86r15c6v2.8.jpg	 l	 1.844	 GoodTrial	 allStim	 ra
24	 6	 0	 x	 LineStimuli//allStim/stimNo145r0c0v2.8.jpg	 r	 11.652	 GoodTrial	 allStim	 ra
25	 6	 1	 left	 LineStimuli//allStim/stimNo110r7c9v3.8.jpg	 l	 1.615	 GoodTrial	 allStim	 ra
26	 6	 1	 left	 LineStimuli//allStim/stimNo89r10c7v3.8.jpg	 l	 1.687	 GoodTrial	 allStim	 ra
27	 6	 1	 left	 LineStimuli//allStim/stimNo119r15c7v3.3.jpg	 l	 1.586	 GoodTrial	 allStim	 ra
28	 6	 1	 right	 LineStimuli//allStim/stimNo118r11c15v1.8.jpg	 r	 2.678	 GoodTrial	 allStim	 ra
29	 6	 1	 right	 LineStimuli//allStim/stimNo107r2c17v3.3.jpg	 l	 1.664	 GoodTrial	 allStim	 ra
30	 6	 0	 x	 LineStimuli//allStim/stimNo147r0c0v2.8.jpg	 r	 2.585	 GoodTrial	 allStim	 ra
31	 6	 0	 x	 LineStimuli//allStim/stimNo152r0c0v1.5.jpg	 r	 1.761	 GoodTrial	 allStim	 ra
32	 6	 0	 x	 LineStimuli//allStim/stimNo135r0c0v3.3.jpg	 r	 4.564	 GoodTrial	 allStim	 ra
33	 6	 0	 x	 LineStimuli//allStim/stimNo151r0c0v3.8.jpg	 r	 2.514	 GoodTrial	 allStim	 ra
34	 6	 1	 right	 LineStimuli//allStim/stimNo96r8c18v3.3.jpg	 l	 1.814	 GoodTrial	 allStim	 ra
35	 6	 1	 right	 LineStimuli//allStim/stimNo103r13c17v1.5.jpg	 r	 3.875	 GoodTrial	 allStim	 ra
36	 6	 1	 left	 LineStimuli//allStim/stimNo83r14c4v2.3.jpg	 l	 2.003	 GoodTrial	 allStim	 ra
37	 6	 0	 x	 LineStimuli//allStim/stimNo156r0c0v3.3.jpg	 r	 5.291	 GoodTrial	 allStim	 ra
38	 6	 0	 x	 LineStimuli//allStim/stimNo144r0c0v3.8.jpg	 r	 1.745	 GoodTrial	 allStim	 ra
39	 6	 1	 right	 LineStimuli//allStim/stimNo114r8c19v2.8.jpg	 l	 1.672	 GoodTrial	 allStim	 ra
40	 6	 1	 right	 LineStimuli//allStim/stimNo89r5c21v3.3.jpg	 l	 4.308	 GoodTrial	 allStim	 ra
41	 6	 0	 x	 LineStimuli//allStim/stimNo139r0c0v3.3.jpg	 r	 2.909	 GoodTrial	 allStim	 ra
42	 6	 1	 right	 LineStimuli//allStim/stimNo84r6c16v3.3.jpg	 l	 1.911	 GoodTrial	 allStim	 ra
43	 6	 0	 x	 LineStimuli//allStim/stimNo126r0c0v1.8.jpg	 r	 1.921	 GoodTrial	 allStim	 ra
44	 6	 1	 left	 LineStimuli//allStim/stimNo95r15c8v3.3.jpg	 l	 1.707	 GoodTrial	 allStim	 ra
45	 6	 0	 x	 LineStimuli//allStim/stimNo143r0c0v2.8.jpg	 r	 3.759	 GoodTrial	 allStim	 ra
46	 6	 0	 x	 LineStimuli//allStim/stimNo152r0c0v1.8.jpg	 r	 1.792	 GoodTrial	 allStim	 ra
47	 6	 1	 right	 LineStimuli//allStim/stimNo120r8c18v4.3.jpg	 l	 1.662	 GoodTrial	 allStim	 ra
48	 6	 1	 right	 LineStimuli//allStim/stimNo112r5c15v3.3.jpg	 l	 2.191	 GoodTrial	 allStim	 ra
49	 6	 0	 x	 LineStimuli//allStim/stimNo127r0c0v1.8.jpg	 x	 5.751	 GoodTrial	 allStim	 ra
50	 6	 0	 x	 LineStimuli//allStim/stimNo124r0c0v3.8.jpg	 r	 2.849	 GoodTrial	 allStim	 ra
1	 7	 1	 left	 LineStimuli//allStim/stimNo109r15c7v3.3.jpg	 x	 0.624	 EARLY_RESPONSE	 allStim	 ra
2	 7	 1	 left	 LineStimuli//allStim/stimNo115r7c3v2.3.jpg	 x	 5.263	 GoodTrial	 allStim	 ra
3	 7	 0	 x	 LineStimuli//allStim/stimNo152r0c0v1.5.jpg	 x	 7.473	 GoodTrial	 allStim	 ra
4	 7	 0	 x	 LineStimuli//allStim/stimNo135r0c0v4.3.jpg	 r	 2.483	 GoodTrial	 allStim	 ra
5	 7	 0	 x	 LineStimuli//allStim/stimNo122r0c0v3.3.jpg	 r	 2.406	 GoodTrial	 allStim	 ra
6	 7	 1	 right	 LineStimuli//allStim/stimNo103r11c21v2.3.jpg	 l	 2.181	 GoodTrial	 allStim	 ra
7	 7	 1	 right	 LineStimuli//allStim/stimNo101r5c20v1.5.jpg	 r	 4.738	 GoodTrial	 allStim	 ra
8	 7	 1	 left	 LineStimuli//allStim/stimNo118r4c8v3.8.jpg	 l	 5.580	 GoodTrial	 allStim	 ra
9	 7	 0	 x	 LineStimuli//allStim/stimNo147r0c0v2.8.jpg	 r	 6.108	 GoodTrial	 allStim	 ra
10	 7	 0	 x	 LineStimuli//allStim/stimNo141r0c0v3.8.jpg	 r	 3.685	 GoodTrial	 allStim	 ra
11	 7	 1	 left	 LineStimuli//allStim/stimNo83r14c4v2.3.jpg	 l	 2.025	 GoodTrial	 allStim	 ra
12	 7	 1	 left	 LineStimuli//allStim/stimNo96r6c9v2.8.jpg	 l	 1.947	 GoodTrial	 allStim	 ra
13	 7	 1	 right	 LineStimuli//allStim/stimNo118r3c16v3.3.jpg	 l	 1.792	 GoodTrial	 allStim	 ra
14	 7	 1	 left	 LineStimuli//allStim/stimNo88r15c9v1.8.jpg	 r	 2.659	 GoodTrial	 allStim	 ra
15	 7	 0	 x	 LineStimuli//allStim/stimNo144r0c0v2.3.jpg	 l	 3.648	 GoodTrial	 allStim	 ra
16	 7	 0	 x	 LineStimuli//allStim/stimNo125r0c0v1.5.jpg	 r	 1.839	 GoodTrial	 allStim	 ra
17	 7	 1	 left	 LineStimuli//allStim/stimNo94r13c8v1.8.jpg	 r	 5.316	 GoodTrial	 allStim	 ra
18	 7	 1	 right	 LineStimuli//allStim/stimNo114r10c15v4.3.jpg	 l	 1.999	 GoodTrial	 allStim	 ra
19	 7	 0	 x	 LineStimuli//allStim/stimNo124r0c0v4.3.jpg	 x	 4.224	 GoodTrial	 allStim	 ra
20	 7	 0	 x	 LineStimuli//allStim/stimNo149r0c0v3.3.jpg	 x	 0.960	 EARLY_RESPONSE	 allStim	 ra
21	 7	 1	 left	 LineStimuli//allStim/stimNo86r7c3v4.3.jpg	 l	 2.113	 GoodTrial	 allStim	 ra
22	 7	 1	 left	 LineStimuli//allStim/stimNo100r8c3v4.3.jpg	 l	 1.944	 GoodTrial	 allStim	 ra
23	 7	 1	 right	 LineStimuli//allStim/stimNo112r6c15v1.8.jpg	 l	 5.470	 GoodTrial	 allStim	 ra
24	 7	 0	 x	 LineStimuli//allStim/stimNo121r0c0v2.3.jpg	 l	 9.553	 GoodTrial	 allStim	 ra
25	 7	 1	 left	 LineStimuli//allStim/stimNo103r6c6v3.3.jpg	 x	 0.985	 EARLY_RESPONSE	 allStim	 ra
26	 7	 1	 left	 LineStimuli//allStim/stimNo104r15c2v4.3.jpg	 l	 2.180	 GoodTrial	 allStim	 ra
27	 7	 1	 right	 LineStimuli//allStim/stimNo109r2c17v2.3.jpg	 l	 2.577	 GoodTrial	 allStim	 ra
28	 7	 0	 x	 LineStimuli//allStim/stimNo154r0c0v3.8.jpg	 l	 3.081	 GoodTrial	 allStim	 ra
29	 7	 0	 x	 LineStimuli//allStim/stimNo121r0c0v3.8.jpg	 x	 2.133	 GoodTrial	 allStim	 ra
30	 7	 1	 right	 LineStimuli//allStim/stimNo104r5c18v1.5.jpg	 l	 4.633	 GoodTrial	 allStim	 ra
31	 7	 0	 x	 LineStimuli//allStim/stimNo132r0c0v1.8.jpg	 l	 3.685	 GoodTrial	 allStim	 ra
32	 7	 0	 x	 LineStimuli//allStim/stimNo154r0c0v2.3.jpg	 r	 4.749	 GoodTrial	 allStim	 ra
33	 7	 0	 x	 LineStimuli//allStim/stimNo156r0c0v4.3.jpg	 r	 3.827	 GoodTrial	 allStim	 ra
34	 7	 1	 left	 LineStimuli//allStim/stimNo105r14c6v4.3.jpg	 l	 1.943	 GoodTrial	 allStim	 ra
35	 7	 0	 x	 LineStimuli//allStim/stimNo142r0c0v2.8.jpg	 r	 12.129	 GoodTrial	 allStim	 ra
36	 7	 1	 right	 LineStimuli//allStim/stimNo112r12c16v3.8.jpg	 l	 1.713	 GoodTrial	 allStim	 ra
37	 7	 1	 left	 LineStimuli//allStim/stimNo106r3c7v1.5.jpg	 r	 2.274	 GoodTrial	 allStim	 ra
38	 7	 0	 x	 LineStimuli//allStim/stimNo136r0c0v3.3.jpg	 r	 3.089	 GoodTrial	 allStim	 ra
39	 7	 1	 right	 LineStimuli//allStim/stimNo97r15c18v1.8.jpg	 l	 2.788	 GoodTrial	 allStim	 ra
40	 7	 1	 left	 LineStimuli//allStim/stimNo106r8c2v4.3.jpg	 l	 1.655	 GoodTrial	 allStim	 ra
41	 7	 1	 left	 LineStimuli//allStim/stimNo89r10c7v3.8.jpg	 l	 1.559	 GoodTrial	 allStim	 ra
42	 7	 0	 x	 LineStimuli//allStim/stimNo128r0c0v2.8.jpg	 r	 1.843	 GoodTrial	 allStim	 ra
43	 7	 1	 right	 LineStimuli//allStim/stimNo87r13c19v2.3.jpg	 l	 13.203	 GoodTrial	 allStim	 ra
44	 7	 1	 right	 LineStimuli//allStim/stimNo84r11c21v1.8.jpg	 l	 3.629	 GoodTrial	 allStim	 ra
45	 7	 1	 right	 LineStimuli//allStim/stimNo111r7c17v1.5.jpg	 r	 1.713	 GoodTrial	 allStim	 ra
46	 7	 0	 x	 LineStimuli//allStim/stimNo144r0c0v1.8.jpg	 l	 2.882	 GoodTrial	 allStim	 ra
47	 7	 0	 x	 LineStimuli//allStim/stimNo129r0c0v3.3.jpg	 r	 3.442	 GoodTrial	 allStim	 ra
48	 7	 1	 right	 LineStimuli//allStim/stimNo88r9c14v3.3.jpg	 l	 2.009	 GoodTrial	 allStim	 ra
49	 7	 1	 left	 LineStimuli//allStim/stimNo95r11c9v4.3.jpg	 l	 1.617	 GoodTrial	 allStim	 ra
50	 7	 0	 x	 LineStimuli//allStim/stimNo157r0c0v1.8.jpg	 r	 2.510	 GoodTrial	 allStim	 ra
