Trial	Block	Target_pr	Target_side	Name	Key	RT	Message	Block_Type	Condition
1	 1	 1	 left	 LineStimuli//4.3/stimNo95r11c9v4.3.jpg	 l	 1.934	 GoodTrial	 4.3	 bl
2	 1	 1	 right	 LineStimuli//4.3/stimNo84r15c20v4.3.jpg	 l	 1.812	 GoodTrial	 4.3	 bl
3	 1	 1	 right	 LineStimuli//4.3/stimNo114r10c15v4.3.jpg	 l	 1.592	 GoodTrial	 4.3	 bl
4	 1	 0	 x	 LineStimuli//4.3/stimNo150r0c0v4.3.jpg	 r	 1.770	 GoodTrial	 4.3	 bl
5	 1	 0	 x	 LineStimuli//4.3/stimNo144r0c0v4.3.jpg	 r	 1.747	 GoodTrial	 4.3	 bl
6	 1	 1	 right	 LineStimuli//4.3/stimNo116r5c13v4.3.jpg	 l	 1.685	 GoodTrial	 4.3	 bl
7	 1	 1	 right	 LineStimuli//4.3/stimNo115r10c18v4.3.jpg	 l	 1.564	 GoodTrial	 4.3	 bl
8	 1	 1	 right	 LineStimuli//4.3/stimNo117r10c21v4.3.jpg	 l	 1.586	 GoodTrial	 4.3	 bl
9	 1	 0	 x	 LineStimuli//4.3/stimNo141r0c0v4.3.jpg	 r	 1.813	 GoodTrial	 4.3	 bl
10	 1	 0	 x	 LineStimuli//4.3/stimNo148r0c0v4.3.jpg	 r	 1.692	 GoodTrial	 4.3	 bl
11	 1	 0	 x	 LineStimuli//4.3/stimNo137r0c0v4.3.jpg	 r	 1.808	 GoodTrial	 4.3	 bl
12	 1	 0	 x	 LineStimuli//4.3/stimNo124r0c0v4.3.jpg	 r	 1.895	 GoodTrial	 4.3	 bl
13	 1	 1	 left	 LineStimuli//4.3/stimNo100r8c3v4.3.jpg	 l	 1.619	 GoodTrial	 4.3	 bl
14	 1	 0	 x	 LineStimuli//4.3/stimNo133r0c0v4.3.jpg	 r	 1.673	 GoodTrial	 4.3	 bl
15	 1	 1	 right	 LineStimuli//4.3/stimNo109r15c15v4.3.jpg	 l	 2.088	 GoodTrial	 4.3	 bl
16	 1	 1	 right	 LineStimuli//4.3/stimNo118r11c13v4.3.jpg	 l	 1.884	 GoodTrial	 4.3	 bl
17	 1	 0	 x	 LineStimuli//4.3/stimNo143r0c0v4.3.jpg	 r	 1.541	 GoodTrial	 4.3	 bl
18	 1	 1	 right	 LineStimuli//4.3/stimNo119r12c17v4.3.jpg	 l	 1.536	 GoodTrial	 4.3	 bl
19	 1	 1	 left	 LineStimuli//4.3/stimNo90r10c4v4.3.jpg	 l	 1.576	 GoodTrial	 4.3	 bl
20	 1	 1	 right	 LineStimuli//4.3/stimNo112r10c16v4.3.jpg	 l	 1.723	 GoodTrial	 4.3	 bl
21	 1	 0	 x	 LineStimuli//4.3/stimNo129r0c0v4.3.jpg	 r	 1.752	 GoodTrial	 4.3	 bl
22	 1	 0	 x	 LineStimuli//4.3/stimNo125r0c0v4.3.jpg	 r	 1.888	 GoodTrial	 4.3	 bl
23	 1	 1	 right	 LineStimuli//4.3/stimNo91r9c13v4.3.jpg	 l	 1.518	 GoodTrial	 4.3	 bl
24	 1	 0	 x	 LineStimuli//4.3/stimNo132r0c0v4.3.jpg	 r	 1.980	 GoodTrial	 4.3	 bl
25	 1	 1	 left	 LineStimuli//4.3/stimNo83r4c2v4.3.jpg	 l	 1.710	 GoodTrial	 4.3	 bl
26	 1	 1	 left	 LineStimuli//4.3/stimNo101r5c5v4.3.jpg	 l	 1.511	 GoodTrial	 4.3	 bl
27	 1	 0	 x	 LineStimuli//4.3/stimNo142r0c0v4.3.jpg	 r	 1.796	 GoodTrial	 4.3	 bl
28	 1	 0	 x	 LineStimuli//4.3/stimNo151r0c0v4.3.jpg	 r	 1.751	 GoodTrial	 4.3	 bl
29	 1	 1	 left	 LineStimuli//4.3/stimNo93r9c9v4.3.jpg	 l	 1.496	 GoodTrial	 4.3	 bl
30	 1	 1	 right	 LineStimuli//4.3/stimNo82r7c18v4.3.jpg	 l	 1.513	 GoodTrial	 4.3	 bl
31	 1	 0	 x	 LineStimuli//4.3/stimNo153r0c0v4.3.jpg	 r	 1.755	 GoodTrial	 4.3	 bl
32	 1	 0	 x	 LineStimuli//4.3/stimNo159r0c0v4.3.jpg	 r	 2.336	 GoodTrial	 4.3	 bl
33	 1	 1	 right	 LineStimuli//4.3/stimNo99r14c18v4.3.jpg	 l	 1.629	 GoodTrial	 4.3	 bl
34	 1	 1	 left	 LineStimuli//4.3/stimNo106r8c2v4.3.jpg	 l	 1.525	 GoodTrial	 4.3	 bl
35	 1	 1	 right	 LineStimuli//4.3/stimNo96r4c19v4.3.jpg	 l	 1.717	 GoodTrial	 4.3	 bl
36	 1	 0	 x	 LineStimuli//4.3/stimNo157r0c0v4.3.jpg	 r	 1.727	 GoodTrial	 4.3	 bl
37	 1	 0	 x	 LineStimuli//4.3/stimNo160r0c0v4.3.jpg	 r	 1.728	 GoodTrial	 4.3	 bl
38	 1	 1	 left	 LineStimuli//4.3/stimNo85r3c5v4.3.jpg	 l	 1.509	 GoodTrial	 4.3	 bl
39	 1	 1	 right	 LineStimuli//4.3/stimNo120r8c18v4.3.jpg	 r	 1.431	 GoodTrial	 4.3	 bl
40	 1	 0	 x	 LineStimuli//4.3/stimNo149r0c0v4.3.jpg	 r	 1.689	 GoodTrial	 4.3	 bl
41	 1	 0	 x	 LineStimuli//4.3/stimNo155r0c0v4.3.jpg	 r	 1.764	 GoodTrial	 4.3	 bl
42	 1	 0	 x	 LineStimuli//4.3/stimNo121r0c0v4.3.jpg	 r	 1.872	 GoodTrial	 4.3	 bl
43	 1	 0	 x	 LineStimuli//4.3/stimNo127r0c0v4.3.jpg	 r	 1.687	 GoodTrial	 4.3	 bl
44	 1	 1	 right	 LineStimuli//4.3/stimNo94r12c13v4.3.jpg	 l	 1.529	 GoodTrial	 4.3	 bl
45	 1	 1	 right	 LineStimuli//4.3/stimNo89r3c17v4.3.jpg	 l	 1.539	 GoodTrial	 4.3	 bl
46	 1	 0	 x	 LineStimuli//4.3/stimNo136r0c0v4.3.jpg	 r	 1.689	 GoodTrial	 4.3	 bl
47	 1	 0	 x	 LineStimuli//4.3/stimNo139r0c0v4.3.jpg	 r	 1.689	 GoodTrial	 4.3	 bl
48	 1	 0	 x	 LineStimuli//4.3/stimNo134r0c0v4.3.jpg	 r	 1.860	 GoodTrial	 4.3	 bl
49	 1	 0	 x	 LineStimuli//4.3/stimNo158r0c0v4.3.jpg	 r	 1.818	 GoodTrial	 4.3	 bl
50	 1	 0	 x	 LineStimuli//4.3/stimNo147r0c0v4.3.jpg	 r	 1.593	 GoodTrial	 4.3	 bl
1	 2	 1	 right	 LineStimuli//2.8/stimNo114r8c19v2.8.jpg	 l	 2.276	 GoodTrial	 2.8	 bl
2	 2	 0	 x	 LineStimuli//2.8/stimNo144r0c0v2.8.jpg	 r	 2.885	 GoodTrial	 2.8	 bl
3	 2	 1	 right	 LineStimuli//2.8/stimNo93r9c20v2.8.jpg	 l	 1.696	 GoodTrial	 2.8	 bl
4	 2	 1	 left	 LineStimuli//2.8/stimNo86r15c6v2.8.jpg	 l	 2.238	 GoodTrial	 2.8	 bl
5	 2	 0	 x	 LineStimuli//2.8/stimNo132r0c0v2.8.jpg	 r	 2.762	 GoodTrial	 2.8	 bl
6	 2	 1	 right	 LineStimuli//2.8/stimNo106r13c20v2.8.jpg	 l	 1.591	 GoodTrial	 2.8	 bl
7	 2	 0	 x	 LineStimuli//2.8/stimNo146r0c0v2.8.jpg	 r	 2.004	 GoodTrial	 2.8	 bl
8	 2	 1	 left	 LineStimuli//2.8/stimNo107r5c6v2.8.jpg	 l	 1.775	 GoodTrial	 2.8	 bl
9	 2	 1	 right	 LineStimuli//2.8/stimNo100r8c13v2.8.jpg	 r	 2.190	 GoodTrial	 2.8	 bl
10	 2	 0	 x	 LineStimuli//2.8/stimNo148r0c0v2.8.jpg	 r	 2.701	 GoodTrial	 2.8	 bl
11	 2	 1	 left	 LineStimuli//2.8/stimNo119r8c5v2.8.jpg	 l	 1.586	 GoodTrial	 2.8	 bl
12	 2	 1	 right	 LineStimuli//2.8/stimNo81r8c14v2.8.jpg	 l	 1.637	 GoodTrial	 2.8	 bl
13	 2	 0	 x	 LineStimuli//2.8/stimNo129r0c0v2.8.jpg	 r	 2.360	 GoodTrial	 2.8	 bl
14	 2	 1	 left	 LineStimuli//2.8/stimNo84r3c9v2.8.jpg	 l	 1.604	 GoodTrial	 2.8	 bl
15	 2	 0	 x	 LineStimuli//2.8/stimNo141r0c0v2.8.jpg	 r	 2.277	 GoodTrial	 2.8	 bl
16	 2	 0	 x	 LineStimuli//2.8/stimNo134r0c0v2.8.jpg	 r	 2.927	 GoodTrial	 2.8	 bl
17	 2	 1	 right	 LineStimuli//2.8/stimNo111r9c15v2.8.jpg	 l	 1.519	 GoodTrial	 2.8	 bl
18	 2	 0	 x	 LineStimuli//2.8/stimNo130r0c0v2.8.jpg	 r	 1.951	 GoodTrial	 2.8	 bl
19	 2	 1	 right	 LineStimuli//2.8/stimNo109r6c18v2.8.jpg	 l	 1.496	 GoodTrial	 2.8	 bl
20	 2	 1	 left	 LineStimuli//2.8/stimNo105r5c4v2.8.jpg	 l	 1.711	 GoodTrial	 2.8	 bl
21	 2	 0	 x	 LineStimuli//2.8/stimNo139r0c0v2.8.jpg	 r	 1.934	 GoodTrial	 2.8	 bl
22	 2	 0	 x	 LineStimuli//2.8/stimNo149r0c0v2.8.jpg	 r	 2.244	 GoodTrial	 2.8	 bl
23	 2	 1	 right	 LineStimuli//2.8/stimNo120r8c20v2.8.jpg	 l	 1.650	 GoodTrial	 2.8	 bl
24	 2	 1	 right	 LineStimuli//2.8/stimNo110r7c14v2.8.jpg	 l	 1.663	 GoodTrial	 2.8	 bl
25	 2	 1	 left	 LineStimuli//2.8/stimNo94r13c7v2.8.jpg	 l	 1.661	 GoodTrial	 2.8	 bl
26	 2	 1	 left	 LineStimuli//2.8/stimNo89r12c4v2.8.jpg	 l	 1.683	 GoodTrial	 2.8	 bl
27	 2	 0	 x	 LineStimuli//2.8/stimNo128r0c0v2.8.jpg	 r	 2.352	 GoodTrial	 2.8	 bl
28	 2	 0	 x	 LineStimuli//2.8/stimNo122r0c0v2.8.jpg	 r	 1.746	 GoodTrial	 2.8	 bl
29	 2	 1	 right	 LineStimuli//2.8/stimNo101r12c16v2.8.jpg	 l	 1.584	 GoodTrial	 2.8	 bl
30	 2	 1	 left	 LineStimuli//2.8/stimNo91r2c3v2.8.jpg	 r	 1.787	 GoodTrial	 2.8	 bl
31	 2	 1	 right	 LineStimuli//2.8/stimNo112r13c17v2.8.jpg	 l	 1.663	 GoodTrial	 2.8	 bl
32	 2	 0	 x	 LineStimuli//2.8/stimNo153r0c0v2.8.jpg	 r	 2.102	 GoodTrial	 2.8	 bl
33	 2	 0	 x	 LineStimuli//2.8/stimNo142r0c0v2.8.jpg	 r	 1.935	 GoodTrial	 2.8	 bl
34	 2	 0	 x	 LineStimuli//2.8/stimNo154r0c0v2.8.jpg	 r	 2.295	 GoodTrial	 2.8	 bl
35	 2	 0	 x	 LineStimuli//2.8/stimNo131r0c0v2.8.jpg	 r	 2.565	 GoodTrial	 2.8	 bl
36	 2	 0	 x	 LineStimuli//2.8/stimNo158r0c0v2.8.jpg	 r	 2.112	 GoodTrial	 2.8	 bl
37	 2	 0	 x	 LineStimuli//2.8/stimNo133r0c0v2.8.jpg	 r	 2.079	 GoodTrial	 2.8	 bl
38	 2	 0	 x	 LineStimuli//2.8/stimNo125r0c0v2.8.jpg	 r	 1.902	 GoodTrial	 2.8	 bl
39	 2	 0	 x	 LineStimuli//2.8/stimNo127r0c0v2.8.jpg	 r	 1.912	 GoodTrial	 2.8	 bl
40	 2	 0	 x	 LineStimuli//2.8/stimNo155r0c0v2.8.jpg	 r	 2.039	 GoodTrial	 2.8	 bl
41	 2	 0	 x	 LineStimuli//2.8/stimNo145r0c0v2.8.jpg	 r	 2.111	 GoodTrial	 2.8	 bl
42	 2	 0	 x	 LineStimuli//2.8/stimNo160r0c0v2.8.jpg	 r	 2.213	 GoodTrial	 2.8	 bl
43	 2	 0	 x	 LineStimuli//2.8/stimNo152r0c0v2.8.jpg	 r	 1.825	 GoodTrial	 2.8	 bl
44	 2	 0	 x	 LineStimuli//2.8/stimNo159r0c0v2.8.jpg	 r	 1.980	 GoodTrial	 2.8	 bl
45	 2	 0	 x	 LineStimuli//2.8/stimNo156r0c0v2.8.jpg	 r	 2.618	 GoodTrial	 2.8	 bl
46	 2	 1	 left	 LineStimuli//2.8/stimNo102r3c2v2.8.jpg	 l	 1.890	 GoodTrial	 2.8	 bl
47	 2	 1	 left	 LineStimuli//2.8/stimNo88r15c3v2.8.jpg	 l	 2.058	 GoodTrial	 2.8	 bl
48	 2	 1	 left	 LineStimuli//2.8/stimNo82r4c6v2.8.jpg	 l	 1.559	 GoodTrial	 2.8	 bl
49	 2	 0	 x	 LineStimuli//2.8/stimNo137r0c0v2.8.jpg	 r	 2.460	 GoodTrial	 2.8	 bl
50	 2	 1	 right	 LineStimuli//2.8/stimNo85r4c15v2.8.jpg	 l	 1.657	 GoodTrial	 2.8	 bl
1	 3	 0	 x	 LineStimuli//2.3/stimNo154r0c0v2.3.jpg	 r	 2.806	 GoodTrial	 2.3	 bl
2	 3	 1	 right	 LineStimuli//2.3/stimNo90r14c21v2.3.jpg	 l	 1.875	 GoodTrial	 2.3	 bl
3	 3	 0	 x	 LineStimuli//2.3/stimNo122r0c0v2.3.jpg	 r	 2.860	 GoodTrial	 2.3	 bl
4	 3	 1	 left	 LineStimuli//2.3/stimNo96r3c3v2.3.jpg	 l	 1.737	 GoodTrial	 2.3	 bl
5	 3	 0	 x	 LineStimuli//2.3/stimNo159r0c0v2.3.jpg	 r	 2.501	 GoodTrial	 2.3	 bl
6	 3	 0	 x	 LineStimuli//2.3/stimNo153r0c0v2.3.jpg	 r	 2.860	 GoodTrial	 2.3	 bl
7	 3	 1	 right	 LineStimuli//2.3/stimNo99r2c13v2.3.jpg	 l	 1.811	 GoodTrial	 2.3	 bl
8	 3	 0	 x	 LineStimuli//2.3/stimNo148r0c0v2.3.jpg	 r	 2.181	 GoodTrial	 2.3	 bl
9	 3	 1	 right	 LineStimuli//2.3/stimNo93r4c16v2.3.jpg	 l	 1.702	 GoodTrial	 2.3	 bl
10	 3	 1	 left	 LineStimuli//2.3/stimNo94r8c9v2.3.jpg	 l	 1.963	 GoodTrial	 2.3	 bl
11	 3	 1	 left	 LineStimuli//2.3/stimNo100r8c6v2.3.jpg	 l	 1.651	 GoodTrial	 2.3	 bl
12	 3	 1	 right	 LineStimuli//2.3/stimNo107r11c15v2.3.jpg	 l	 1.606	 GoodTrial	 2.3	 bl
13	 3	 0	 x	 LineStimuli//2.3/stimNo145r0c0v2.3.jpg	 r	 1.941	 GoodTrial	 2.3	 bl
14	 3	 0	 x	 LineStimuli//2.3/stimNo135r0c0v2.3.jpg	 r	 2.041	 GoodTrial	 2.3	 bl
15	 3	 1	 left	 LineStimuli//2.3/stimNo119r3c2v2.3.jpg	 l	 1.910	 GoodTrial	 2.3	 bl
16	 3	 1	 right	 LineStimuli//2.3/stimNo102r6c18v2.3.jpg	 l	 1.707	 GoodTrial	 2.3	 bl
17	 3	 0	 x	 LineStimuli//2.3/stimNo125r0c0v2.3.jpg	 r	 1.859	 GoodTrial	 2.3	 bl
18	 3	 1	 right	 LineStimuli//2.3/stimNo92r10c17v2.3.jpg	 l	 1.605	 GoodTrial	 2.3	 bl
19	 3	 0	 x	 LineStimuli//2.3/stimNo131r0c0v2.3.jpg	 r	 1.836	 GoodTrial	 2.3	 bl
20	 3	 0	 x	 LineStimuli//2.3/stimNo121r0c0v2.3.jpg	 r	 2.195	 GoodTrial	 2.3	 bl
21	 3	 1	 right	 LineStimuli//2.3/stimNo105r14c14v2.3.jpg	 l	 1.803	 GoodTrial	 2.3	 bl
22	 3	 0	 x	 LineStimuli//2.3/stimNo156r0c0v2.3.jpg	 r	 1.678	 GoodTrial	 2.3	 bl
23	 3	 0	 x	 LineStimuli//2.3/stimNo147r0c0v2.3.jpg	 r	 1.808	 GoodTrial	 2.3	 bl
24	 3	 0	 x	 LineStimuli//2.3/stimNo132r0c0v2.3.jpg	 r	 2.023	 GoodTrial	 2.3	 bl
25	 3	 1	 left	 LineStimuli//2.3/stimNo112r3c2v2.3.jpg	 l	 2.138	 GoodTrial	 2.3	 bl
26	 3	 0	 x	 LineStimuli//2.3/stimNo139r0c0v2.3.jpg	 r	 1.877	 GoodTrial	 2.3	 bl
27	 3	 0	 x	 LineStimuli//2.3/stimNo152r0c0v2.3.jpg	 r	 2.148	 GoodTrial	 2.3	 bl
28	 3	 1	 right	 LineStimuli//2.3/stimNo118r4c17v2.3.jpg	 l	 1.692	 GoodTrial	 2.3	 bl
29	 3	 0	 x	 LineStimuli//2.3/stimNo155r0c0v2.3.jpg	 r	 1.778	 GoodTrial	 2.3	 bl
30	 3	 0	 x	 LineStimuli//2.3/stimNo146r0c0v2.3.jpg	 r	 1.719	 GoodTrial	 2.3	 bl
31	 3	 0	 x	 LineStimuli//2.3/stimNo157r0c0v2.3.jpg	 r	 1.916	 GoodTrial	 2.3	 bl
32	 3	 0	 x	 LineStimuli//2.3/stimNo129r0c0v2.3.jpg	 r	 2.045	 GoodTrial	 2.3	 bl
33	 3	 1	 left	 LineStimuli//2.3/stimNo88r15c2v2.3.jpg	 l	 1.906	 GoodTrial	 2.3	 bl
34	 3	 1	 left	 LineStimuli//2.3/stimNo108r15c6v2.3.jpg	 l	 1.558	 GoodTrial	 2.3	 bl
35	 3	 1	 left	 LineStimuli//2.3/stimNo97r3c3v2.3.jpg	 l	 1.758	 GoodTrial	 2.3	 bl
36	 3	 0	 x	 LineStimuli//2.3/stimNo151r0c0v2.3.jpg	 r	 2.289	 GoodTrial	 2.3	 bl
37	 3	 0	 x	 LineStimuli//2.3/stimNo149r0c0v2.3.jpg	 r	 1.761	 GoodTrial	 2.3	 bl
38	 3	 1	 left	 LineStimuli//2.3/stimNo104r2c4v2.3.jpg	 l	 1.717	 GoodTrial	 2.3	 bl
39	 3	 0	 x	 LineStimuli//2.3/stimNo136r0c0v2.3.jpg	 r	 2.036	 GoodTrial	 2.3	 bl
40	 3	 1	 left	 LineStimuli//2.3/stimNo113r3c8v2.3.jpg	 l	 1.555	 GoodTrial	 2.3	 bl
41	 3	 1	 right	 LineStimuli//2.3/stimNo84r15c14v2.3.jpg	 l	 1.623	 GoodTrial	 2.3	 bl
42	 3	 1	 left	 LineStimuli//2.3/stimNo83r14c4v2.3.jpg	 l	 1.763	 GoodTrial	 2.3	 bl
43	 3	 1	 right	 LineStimuli//2.3/stimNo109r2c17v2.3.jpg	 l	 1.785	 GoodTrial	 2.3	 bl
44	 3	 1	 left	 LineStimuli//2.3/stimNo82r12c4v2.3.jpg	 l	 1.616	 GoodTrial	 2.3	 bl
45	 3	 0	 x	 LineStimuli//2.3/stimNo140r0c0v2.3.jpg	 r	 1.783	 GoodTrial	 2.3	 bl
46	 3	 1	 right	 LineStimuli//2.3/stimNo103r11c21v2.3.jpg	 l	 1.711	 GoodTrial	 2.3	 bl
47	 3	 0	 x	 LineStimuli//2.3/stimNo143r0c0v2.3.jpg	 r	 2.004	 GoodTrial	 2.3	 bl
48	 3	 0	 x	 LineStimuli//2.3/stimNo124r0c0v2.3.jpg	 r	 1.904	 GoodTrial	 2.3	 bl
49	 3	 0	 x	 LineStimuli//2.3/stimNo128r0c0v2.3.jpg	 r	 2.031	 GoodTrial	 2.3	 bl
50	 3	 0	 x	 LineStimuli//2.3/stimNo137r0c0v2.3.jpg	 r	 2.148	 GoodTrial	 2.3	 bl
1	 4	 1	 left	 LineStimuli//3.8/stimNo104r12c8v3.8.jpg	 l	 1.922	 GoodTrial	 3.8	 bl
2	 4	 1	 left	 LineStimuli//3.8/stimNo106r9c9v3.8.jpg	 l	 1.580	 GoodTrial	 3.8	 bl
3	 4	 0	 x	 LineStimuli//3.8/stimNo147r0c0v3.8.jpg	 r	 1.600	 GoodTrial	 3.8	 bl
4	 4	 0	 x	 LineStimuli//3.8/stimNo151r0c0v3.8.jpg	 r	 1.705	 GoodTrial	 3.8	 bl
5	 4	 1	 left	 LineStimuli//3.8/stimNo89r10c7v3.8.jpg	 l	 1.652	 GoodTrial	 3.8	 bl
6	 4	 0	 x	 LineStimuli//3.8/stimNo134r0c0v3.8.jpg	 r	 1.590	 GoodTrial	 3.8	 bl
7	 4	 1	 right	 LineStimuli//3.8/stimNo117r6c17v3.8.jpg	 l	 1.617	 GoodTrial	 3.8	 bl
8	 4	 1	 right	 LineStimuli//3.8/stimNo107r9c18v3.8.jpg	 l	 1.546	 GoodTrial	 3.8	 bl
9	 4	 0	 x	 LineStimuli//3.8/stimNo124r0c0v3.8.jpg	 r	 1.600	 GoodTrial	 3.8	 bl
10	 4	 1	 left	 LineStimuli//3.8/stimNo98r2c9v3.8.jpg	 r	 1.680	 GoodTrial	 3.8	 bl
11	 4	 0	 x	 LineStimuli//3.8/stimNo141r0c0v3.8.jpg	 r	 1.669	 GoodTrial	 3.8	 bl
12	 4	 0	 x	 LineStimuli//3.8/stimNo123r0c0v3.8.jpg	 r	 1.942	 GoodTrial	 3.8	 bl
13	 4	 0	 x	 LineStimuli//3.8/stimNo127r0c0v3.8.jpg	 r	 1.844	 GoodTrial	 3.8	 bl
14	 4	 0	 x	 LineStimuli//3.8/stimNo145r0c0v3.8.jpg	 r	 1.657	 GoodTrial	 3.8	 bl
15	 4	 1	 right	 LineStimuli//3.8/stimNo114r10c14v3.8.jpg	 l	 1.593	 GoodTrial	 3.8	 bl
16	 4	 1	 left	 LineStimuli//3.8/stimNo93r8c2v3.8.jpg	 l	 1.519	 GoodTrial	 3.8	 bl
17	 4	 1	 right	 LineStimuli//3.8/stimNo96r2c13v3.8.jpg	 l	 1.565	 GoodTrial	 3.8	 bl
18	 4	 0	 x	 LineStimuli//3.8/stimNo150r0c0v3.8.jpg	 r	 1.680	 GoodTrial	 3.8	 bl
19	 4	 0	 x	 LineStimuli//3.8/stimNo144r0c0v3.8.jpg	 r	 1.576	 GoodTrial	 3.8	 bl
20	 4	 0	 x	 LineStimuli//3.8/stimNo136r0c0v3.8.jpg	 r	 1.792	 GoodTrial	 3.8	 bl
21	 4	 0	 x	 LineStimuli//3.8/stimNo122r0c0v3.8.jpg	 r	 1.760	 GoodTrial	 3.8	 bl
22	 4	 1	 left	 LineStimuli//3.8/stimNo103r11c7v3.8.jpg	 l	 1.509	 GoodTrial	 3.8	 bl
23	 4	 1	 left	 LineStimuli//3.8/stimNo105r2c6v3.8.jpg	 l	 1.499	 GoodTrial	 3.8	 bl
24	 4	 0	 x	 LineStimuli//3.8/stimNo153r0c0v3.8.jpg	 r	 1.631	 GoodTrial	 3.8	 bl
25	 4	 1	 left	 LineStimuli//3.8/stimNo86r7c7v3.8.jpg	 l	 1.583	 GoodTrial	 3.8	 bl
26	 4	 0	 x	 LineStimuli//3.8/stimNo139r0c0v3.8.jpg	 r	 1.644	 GoodTrial	 3.8	 bl
27	 4	 1	 right	 LineStimuli//3.8/stimNo90r8c17v3.8.jpg	 l	 1.513	 GoodTrial	 3.8	 bl
28	 4	 1	 left	 LineStimuli//3.8/stimNo100r13c6v3.8.jpg	 l	 1.506	 GoodTrial	 3.8	 bl
29	 4	 0	 x	 LineStimuli//3.8/stimNo143r0c0v3.8.jpg	 r	 1.705	 GoodTrial	 3.8	 bl
30	 4	 0	 x	 LineStimuli//3.8/stimNo146r0c0v3.8.jpg	 r	 1.787	 GoodTrial	 3.8	 bl
31	 4	 1	 left	 LineStimuli//3.8/stimNo116r7c3v3.8.jpg	 l	 1.467	 GoodTrial	 3.8	 bl
32	 4	 1	 right	 LineStimuli//3.8/stimNo95r5c21v3.8.jpg	 l	 2.233	 GoodTrial	 3.8	 bl
33	 4	 0	 x	 LineStimuli//3.8/stimNo148r0c0v3.8.jpg	 r	 1.620	 GoodTrial	 3.8	 bl
34	 4	 1	 right	 LineStimuli//3.8/stimNo92r6c21v3.8.jpg	 l	 1.487	 GoodTrial	 3.8	 bl
35	 4	 0	 x	 LineStimuli//3.8/stimNo129r0c0v3.8.jpg	 r	 1.559	 GoodTrial	 3.8	 bl
36	 4	 0	 x	 LineStimuli//3.8/stimNo132r0c0v3.8.jpg	 r	 1.685	 GoodTrial	 3.8	 bl
37	 4	 1	 right	 LineStimuli//3.8/stimNo91r10c16v3.8.jpg	 l	 1.582	 GoodTrial	 3.8	 bl
38	 4	 0	 x	 LineStimuli//3.8/stimNo130r0c0v3.8.jpg	 r	 1.668	 GoodTrial	 3.8	 bl
39	 4	 1	 right	 LineStimuli//3.8/stimNo111r15c20v3.8.jpg	 l	 1.562	 GoodTrial	 3.8	 bl
40	 4	 1	 right	 LineStimuli//3.8/stimNo94r6c17v3.8.jpg	 l	 1.624	 GoodTrial	 3.8	 bl
41	 4	 0	 x	 LineStimuli//3.8/stimNo138r0c0v3.8.jpg	 r	 1.887	 GoodTrial	 3.8	 bl
42	 4	 0	 x	 LineStimuli//3.8/stimNo156r0c0v3.8.jpg	 r	 1.950	 GoodTrial	 3.8	 bl
43	 4	 0	 x	 LineStimuli//3.8/stimNo121r0c0v3.8.jpg	 r	 1.777	 GoodTrial	 3.8	 bl
44	 4	 0	 x	 LineStimuli//3.8/stimNo126r0c0v3.8.jpg	 r	 1.510	 GoodTrial	 3.8	 bl
45	 4	 1	 left	 LineStimuli//3.8/stimNo115r14c10v3.8.jpg	 l	 1.583	 GoodTrial	 3.8	 bl
46	 4	 1	 left	 LineStimuli//3.8/stimNo108r3c6v3.8.jpg	 l	 1.576	 GoodTrial	 3.8	 bl
47	 4	 0	 x	 LineStimuli//3.8/stimNo128r0c0v3.8.jpg	 r	 1.678	 GoodTrial	 3.8	 bl
48	 4	 1	 right	 LineStimuli//3.8/stimNo81r3c21v3.8.jpg	 l	 1.796	 GoodTrial	 3.8	 bl
49	 4	 0	 x	 LineStimuli//3.8/stimNo149r0c0v3.8.jpg	 r	 1.616	 GoodTrial	 3.8	 bl
50	 4	 1	 left	 LineStimuli//3.8/stimNo97r15c9v3.8.jpg	 l	 1.545	 GoodTrial	 3.8	 bl
1	 5	 0	 x	 LineStimuli//3.3/stimNo129r0c0v3.3.jpg	 r	 2.198	 GoodTrial	 3.3	 bl
2	 5	 0	 x	 LineStimuli//3.3/stimNo154r0c0v3.3.jpg	 r	 1.664	 GoodTrial	 3.3	 bl
3	 5	 0	 x	 LineStimuli//3.3/stimNo148r0c0v3.3.jpg	 r	 1.802	 GoodTrial	 3.3	 bl
4	 5	 0	 x	 LineStimuli//3.3/stimNo135r0c0v3.3.jpg	 r	 1.912	 GoodTrial	 3.3	 bl
5	 5	 1	 left	 LineStimuli//3.3/stimNo109r15c7v3.3.jpg	 l	 1.855	 GoodTrial	 3.3	 bl
6	 5	 0	 x	 LineStimuli//3.3/stimNo128r0c0v3.3.jpg	 r	 1.691	 GoodTrial	 3.3	 bl
7	 5	 1	 left	 LineStimuli//3.3/stimNo94r14c9v3.3.jpg	 l	 1.561	 GoodTrial	 3.3	 bl
8	 5	 0	 x	 LineStimuli//3.3/stimNo143r0c0v3.3.jpg	 r	 1.821	 GoodTrial	 3.3	 bl
9	 5	 0	 x	 LineStimuli//3.3/stimNo152r0c0v3.3.jpg	 r	 1.700	 GoodTrial	 3.3	 bl
10	 5	 1	 right	 LineStimuli//3.3/stimNo113r13c15v3.3.jpg	 l	 1.474	 GoodTrial	 3.3	 bl
11	 5	 1	 left	 LineStimuli//3.3/stimNo90r2c9v3.3.jpg	 l	 1.688	 GoodTrial	 3.3	 bl
12	 5	 0	 x	 LineStimuli//3.3/stimNo158r0c0v3.3.jpg	 r	 1.565	 GoodTrial	 3.3	 bl
13	 5	 1	 right	 LineStimuli//3.3/stimNo91r12c16v3.3.jpg	 l	 1.650	 GoodTrial	 3.3	 bl
14	 5	 0	 x	 LineStimuli//3.3/stimNo132r0c0v3.3.jpg	 r	 1.806	 GoodTrial	 3.3	 bl
15	 5	 0	 x	 LineStimuli//3.3/stimNo156r0c0v3.3.jpg	 r	 2.036	 GoodTrial	 3.3	 bl
16	 5	 1	 right	 LineStimuli//3.3/stimNo114r11c21v3.3.jpg	 l	 1.543	 GoodTrial	 3.3	 bl
17	 5	 0	 x	 LineStimuli//3.3/stimNo160r0c0v3.3.jpg	 r	 1.723	 GoodTrial	 3.3	 bl
18	 5	 1	 left	 LineStimuli//3.3/stimNo119r15c7v3.3.jpg	 l	 1.710	 GoodTrial	 3.3	 bl
19	 5	 0	 x	 LineStimuli//3.3/stimNo139r0c0v3.3.jpg	 r	 1.684	 GoodTrial	 3.3	 bl
20	 5	 0	 x	 LineStimuli//3.3/stimNo134r0c0v3.3.jpg	 r	 1.747	 GoodTrial	 3.3	 bl
21	 5	 1	 right	 LineStimuli//3.3/stimNo101r7c16v3.3.jpg	 l	 1.476	 GoodTrial	 3.3	 bl
22	 5	 1	 right	 LineStimuli//3.3/stimNo88r9c14v3.3.jpg	 l	 1.890	 GoodTrial	 3.3	 bl
23	 5	 0	 x	 LineStimuli//3.3/stimNo138r0c0v3.3.jpg	 r	 1.639	 GoodTrial	 3.3	 bl
24	 5	 1	 right	 LineStimuli//3.3/stimNo105r7c20v3.3.jpg	 l	 1.697	 GoodTrial	 3.3	 bl
25	 5	 0	 x	 LineStimuli//3.3/stimNo126r0c0v3.3.jpg	 r	 1.692	 GoodTrial	 3.3	 bl
26	 5	 0	 x	 LineStimuli//3.3/stimNo144r0c0v3.3.jpg	 r	 1.790	 GoodTrial	 3.3	 bl
27	 5	 1	 right	 LineStimuli//3.3/stimNo118r3c16v3.3.jpg	 l	 1.583	 GoodTrial	 3.3	 bl
28	 5	 1	 left	 LineStimuli//3.3/stimNo85r6c4v3.3.jpg	 l	 1.816	 GoodTrial	 3.3	 bl
29	 5	 1	 right	 LineStimuli//3.3/stimNo98r4c21v3.3.jpg	 l	 1.658	 GoodTrial	 3.3	 bl
30	 5	 1	 left	 LineStimuli//3.3/stimNo100r3c3v3.3.jpg	 l	 1.607	 GoodTrial	 3.3	 bl
31	 5	 1	 left	 LineStimuli//3.3/stimNo110r4c3v3.3.jpg	 l	 1.503	 GoodTrial	 3.3	 bl
32	 5	 0	 x	 LineStimuli//3.3/stimNo151r0c0v3.3.jpg	 r	 1.700	 GoodTrial	 3.3	 bl
33	 5	 0	 x	 LineStimuli//3.3/stimNo159r0c0v3.3.jpg	 r	 1.620	 GoodTrial	 3.3	 bl
34	 5	 1	 right	 LineStimuli//3.3/stimNo89r5c21v3.3.jpg	 l	 1.530	 GoodTrial	 3.3	 bl
35	 5	 1	 right	 LineStimuli//3.3/stimNo112r5c15v3.3.jpg	 l	 1.534	 GoodTrial	 3.3	 bl
36	 5	 1	 left	 LineStimuli//3.3/stimNo108r13c2v3.3.jpg	 l	 1.950	 GoodTrial	 3.3	 bl
37	 5	 0	 x	 LineStimuli//3.3/stimNo147r0c0v3.3.jpg	 r	 1.672	 GoodTrial	 3.3	 bl
38	 5	 1	 left	 LineStimuli//3.3/stimNo95r15c8v3.3.jpg	 l	 1.661	 GoodTrial	 3.3	 bl
39	 5	 0	 x	 LineStimuli//3.3/stimNo149r0c0v3.3.jpg	 r	 1.563	 GoodTrial	 3.3	 bl
40	 5	 0	 x	 LineStimuli//3.3/stimNo141r0c0v3.3.jpg	 r	 1.748	 GoodTrial	 3.3	 bl
41	 5	 1	 left	 LineStimuli//3.3/stimNo92r10c7v3.3.jpg	 l	 1.547	 GoodTrial	 3.3	 bl
42	 5	 1	 left	 LineStimuli//3.3/stimNo104r4c4v3.3.jpg	 l	 1.552	 GoodTrial	 3.3	 bl
43	 5	 0	 x	 LineStimuli//3.3/stimNo142r0c0v3.3.jpg	 r	 1.757	 GoodTrial	 3.3	 bl
44	 5	 0	 x	 LineStimuli//3.3/stimNo150r0c0v3.3.jpg	 r	 1.955	 GoodTrial	 3.3	 bl
45	 5	 0	 x	 LineStimuli//3.3/stimNo131r0c0v3.3.jpg	 r	 1.521	 GoodTrial	 3.3	 bl
46	 5	 1	 right	 LineStimuli//3.3/stimNo107r2c17v3.3.jpg	 l	 1.594	 GoodTrial	 3.3	 bl
47	 5	 0	 x	 LineStimuli//3.3/stimNo146r0c0v3.3.jpg	 r	 1.786	 GoodTrial	 3.3	 bl
48	 5	 1	 right	 LineStimuli//3.3/stimNo82r11c20v3.3.jpg	 l	 1.648	 GoodTrial	 3.3	 bl
49	 5	 1	 left	 LineStimuli//3.3/stimNo86r5c7v3.3.jpg	 l	 1.616	 GoodTrial	 3.3	 bl
50	 5	 1	 right	 LineStimuli//3.3/stimNo116r10c14v3.3.jpg	 l	 1.503	 GoodTrial	 3.3	 bl
1	 6	 1	 left	 LineStimuli//1.8/stimNo87r14c2v1.8.jpg	 r	 3.761	 GoodTrial	 1.8	 bl
2	 6	 0	 x	 LineStimuli//1.8/stimNo132r0c0v1.8.jpg	 r	 6.667	 GoodTrial	 1.8	 bl
3	 6	 1	 left	 LineStimuli//1.8/stimNo89r11c6v1.8.jpg	 l	 1.994	 GoodTrial	 1.8	 bl
4	 6	 0	 x	 LineStimuli//1.8/stimNo131r0c0v1.8.jpg	 r	 2.383	 GoodTrial	 1.8	 bl
5	 6	 1	 left	 LineStimuli//1.8/stimNo86r14c4v1.8.jpg	 l	 2.219	 GoodTrial	 1.8	 bl
6	 6	 0	 x	 LineStimuli//1.8/stimNo128r0c0v1.8.jpg	 r	 2.521	 GoodTrial	 1.8	 bl
7	 6	 0	 x	 LineStimuli//1.8/stimNo142r0c0v1.8.jpg	 r	 2.673	 GoodTrial	 1.8	 bl
8	 6	 1	 right	 LineStimuli//1.8/stimNo90r15c13v1.8.jpg	 l	 1.952	 GoodTrial	 1.8	 bl
9	 6	 1	 right	 LineStimuli//1.8/stimNo102r14c17v1.8.jpg	 l	 2.029	 GoodTrial	 1.8	 bl
10	 6	 1	 right	 LineStimuli//1.8/stimNo114r8c13v1.8.jpg	 l	 1.724	 GoodTrial	 1.8	 bl
11	 6	 1	 left	 LineStimuli//1.8/stimNo81r6c8v1.8.jpg	 r	 2.074	 GoodTrial	 1.8	 bl
12	 6	 1	 right	 LineStimuli//1.8/stimNo108r9c21v1.8.jpg	 r	 2.430	 GoodTrial	 1.8	 bl
13	 6	 0	 x	 LineStimuli//1.8/stimNo139r0c0v1.8.jpg	 r	 3.263	 GoodTrial	 1.8	 bl
14	 6	 1	 left	 LineStimuli//1.8/stimNo91r14c4v1.8.jpg	 l	 2.580	 GoodTrial	 1.8	 bl
15	 6	 0	 x	 LineStimuli//1.8/stimNo157r0c0v1.8.jpg	 r	 4.373	 GoodTrial	 1.8	 bl
16	 6	 0	 x	 LineStimuli//1.8/stimNo122r0c0v1.8.jpg	 r	 3.122	 GoodTrial	 1.8	 bl
17	 6	 1	 right	 LineStimuli//1.8/stimNo93r3c17v1.8.jpg	 r	 3.391	 GoodTrial	 1.8	 bl
18	 6	 0	 x	 LineStimuli//1.8/stimNo137r0c0v1.8.jpg	 r	 3.576	 GoodTrial	 1.8	 bl
19	 6	 0	 x	 LineStimuli//1.8/stimNo129r0c0v1.8.jpg	 r	 2.761	 GoodTrial	 1.8	 bl
20	 6	 1	 right	 LineStimuli//1.8/stimNo101r4c13v1.8.jpg	 l	 2.542	 GoodTrial	 1.8	 bl
21	 6	 1	 left	 LineStimuli//1.8/stimNo105r6c5v1.8.jpg	 l	 2.316	 GoodTrial	 1.8	 bl
22	 6	 0	 x	 LineStimuli//1.8/stimNo133r0c0v1.8.jpg	 r	 2.696	 GoodTrial	 1.8	 bl
23	 6	 0	 x	 LineStimuli//1.8/stimNo150r0c0v1.8.jpg	 r	 2.858	 GoodTrial	 1.8	 bl
24	 6	 1	 left	 LineStimuli//1.8/stimNo120r14c9v1.8.jpg	 r	 2.769	 GoodTrial	 1.8	 bl
25	 6	 1	 right	 LineStimuli//1.8/stimNo117r10c16v1.8.jpg	 r	 2.476	 GoodTrial	 1.8	 bl
26	 6	 1	 right	 LineStimuli//1.8/stimNo83r6c13v1.8.jpg	 r	 3.505	 GoodTrial	 1.8	 bl
27	 6	 1	 right	 LineStimuli//1.8/stimNo111r4c21v1.8.jpg	 l	 1.996	 GoodTrial	 1.8	 bl
28	 6	 1	 left	 LineStimuli//1.8/stimNo95r4c9v1.8.jpg	 l	 2.526	 GoodTrial	 1.8	 bl
29	 6	 1	 left	 LineStimuli//1.8/stimNo113r6c7v1.8.jpg	 l	 1.882	 GoodTrial	 1.8	 bl
30	 6	 1	 right	 LineStimuli//1.8/stimNo99r12c16v1.8.jpg	 l	 1.922	 GoodTrial	 1.8	 bl
31	 6	 1	 left	 LineStimuli//1.8/stimNo107r5c4v1.8.jpg	 l	 2.043	 GoodTrial	 1.8	 bl
32	 6	 1	 left	 LineStimuli//1.8/stimNo116r4c7v1.8.jpg	 l	 2.810	 GoodTrial	 1.8	 bl
33	 6	 0	 x	 LineStimuli//1.8/stimNo135r0c0v1.8.jpg	 r	 2.891	 GoodTrial	 1.8	 bl
34	 6	 0	 x	 LineStimuli//1.8/stimNo126r0c0v1.8.jpg	 r	 2.877	 GoodTrial	 1.8	 bl
35	 6	 0	 x	 LineStimuli//1.8/stimNo154r0c0v1.8.jpg	 r	 2.663	 GoodTrial	 1.8	 bl
36	 6	 0	 x	 LineStimuli//1.8/stimNo151r0c0v1.8.jpg	 r	 2.400	 GoodTrial	 1.8	 bl
37	 6	 1	 left	 LineStimuli//1.8/stimNo98r15c5v1.8.jpg	 r	 3.514	 GoodTrial	 1.8	 bl
38	 6	 0	 x	 LineStimuli//1.8/stimNo140r0c0v1.8.jpg	 r	 3.157	 GoodTrial	 1.8	 bl
39	 6	 1	 right	 LineStimuli//1.8/stimNo118r11c15v1.8.jpg	 r	 2.816	 GoodTrial	 1.8	 bl
40	 6	 1	 right	 LineStimuli//1.8/stimNo119r3c21v1.8.jpg	 l	 3.007	 GoodTrial	 1.8	 bl
41	 6	 0	 x	 LineStimuli//1.8/stimNo134r0c0v1.8.jpg	 r	 2.839	 GoodTrial	 1.8	 bl
42	 6	 1	 right	 LineStimuli//1.8/stimNo84r11c21v1.8.jpg	 r	 3.102	 GoodTrial	 1.8	 bl
43	 6	 0	 x	 LineStimuli//1.8/stimNo124r0c0v1.8.jpg	 r	 3.435	 GoodTrial	 1.8	 bl
44	 6	 1	 right	 LineStimuli//1.8/stimNo109r7c17v1.8.jpg	 l	 1.781	 GoodTrial	 1.8	 bl
45	 6	 1	 right	 LineStimuli//1.8/stimNo100r9c13v1.8.jpg	 l	 2.248	 GoodTrial	 1.8	 bl
46	 6	 0	 x	 LineStimuli//1.8/stimNo125r0c0v1.8.jpg	 r	 2.345	 GoodTrial	 1.8	 bl
47	 6	 0	 x	 LineStimuli//1.8/stimNo127r0c0v1.8.jpg	 r	 2.449	 GoodTrial	 1.8	 bl
48	 6	 0	 x	 LineStimuli//1.8/stimNo156r0c0v1.8.jpg	 r	 2.403	 GoodTrial	 1.8	 bl
49	 6	 0	 x	 LineStimuli//1.8/stimNo149r0c0v1.8.jpg	 r	 2.355	 GoodTrial	 1.8	 bl
50	 6	 1	 left	 LineStimuli//1.8/stimNo88r15c9v1.8.jpg	 l	 2.400	 GoodTrial	 1.8	 bl
1	 7	 1	 left	 LineStimuli//1.5/stimNo112r9c5v1.5.jpg	 r	 3.024	 GoodTrial	 1.5	 bl
2	 7	 1	 left	 LineStimuli//1.5/stimNo106r3c7v1.5.jpg	 r	 3.401	 GoodTrial	 1.5	 bl
3	 7	 0	 x	 LineStimuli//1.5/stimNo128r0c0v1.5.jpg	 r	 2.678	 GoodTrial	 1.5	 bl
4	 7	 1	 left	 LineStimuli//1.5/stimNo94r10c6v1.5.jpg	 r	 4.154	 GoodTrial	 1.5	 bl
5	 7	 0	 x	 LineStimuli//1.5/stimNo148r0c0v1.5.jpg	 r	 4.238	 GoodTrial	 1.5	 bl
6	 7	 0	 x	 LineStimuli//1.5/stimNo123r0c0v1.5.jpg	 r	 3.256	 GoodTrial	 1.5	 bl
7	 7	 0	 x	 LineStimuli//1.5/stimNo142r0c0v1.5.jpg	 r	 3.416	 GoodTrial	 1.5	 bl
8	 7	 0	 x	 LineStimuli//1.5/stimNo126r0c0v1.5.jpg	 r	 3.378	 GoodTrial	 1.5	 bl
9	 7	 1	 right	 LineStimuli//1.5/stimNo98r8c21v1.5.jpg	 r	 2.484	 GoodTrial	 1.5	 bl
10	 7	 0	 x	 LineStimuli//1.5/stimNo155r0c0v1.5.jpg	 l	 3.142	 GoodTrial	 1.5	 bl
11	 7	 1	 right	 LineStimuli//1.5/stimNo115r14c18v1.5.jpg	 r	 3.368	 GoodTrial	 1.5	 bl
12	 7	 1	 right	 LineStimuli//1.5/stimNo93r14c18v1.5.jpg	 r	 4.460	 GoodTrial	 1.5	 bl
13	 7	 0	 x	 LineStimuli//1.5/stimNo127r0c0v1.5.jpg	 r	 5.589	 GoodTrial	 1.5	 bl
14	 7	 1	 left	 LineStimuli//1.5/stimNo96r15c4v1.5.jpg	 r	 3.587	 GoodTrial	 1.5	 bl
15	 7	 0	 x	 LineStimuli//1.5/stimNo139r0c0v1.5.jpg	 r	 5.376	 GoodTrial	 1.5	 bl
16	 7	 0	 x	 LineStimuli//1.5/stimNo143r0c0v1.5.jpg	 r	 5.606	 GoodTrial	 1.5	 bl
17	 7	 0	 x	 LineStimuli//1.5/stimNo130r0c0v1.5.jpg	 r	 3.995	 GoodTrial	 1.5	 bl
18	 7	 0	 x	 LineStimuli//1.5/stimNo134r0c0v1.5.jpg	 r	 3.629	 GoodTrial	 1.5	 bl
19	 7	 1	 left	 LineStimuli//1.5/stimNo91r9c3v1.5.jpg	 x	 4.132	 GoodTrial	 1.5	 bl
20	 7	 1	 left	 LineStimuli//1.5/stimNo120r14c2v1.5.jpg	 r	 3.432	 GoodTrial	 1.5	 bl
21	 7	 1	 left	 LineStimuli//1.5/stimNo88r6c7v1.5.jpg	 r	 3.643	 GoodTrial	 1.5	 bl
22	 7	 0	 x	 LineStimuli//1.5/stimNo138r0c0v1.5.jpg	 r	 5.063	 GoodTrial	 1.5	 bl
23	 7	 1	 left	 LineStimuli//1.5/stimNo102r7c6v1.5.jpg	 r	 4.357	 GoodTrial	 1.5	 bl
24	 7	 0	 x	 LineStimuli//1.5/stimNo140r0c0v1.5.jpg	 r	 5.228	 GoodTrial	 1.5	 bl
25	 7	 1	 left	 LineStimuli//1.5/stimNo114r4c4v1.5.jpg	 r	 5.206	 GoodTrial	 1.5	 bl
26	 7	 0	 x	 LineStimuli//1.5/stimNo160r0c0v1.5.jpg	 r	 5.602	 GoodTrial	 1.5	 bl
27	 7	 1	 right	 LineStimuli//1.5/stimNo90r3c15v1.5.jpg	 r	 5.663	 GoodTrial	 1.5	 bl
28	 7	 1	 right	 LineStimuli//1.5/stimNo108r13c15v1.5.jpg	 l	 2.621	 GoodTrial	 1.5	 bl
29	 7	 0	 x	 LineStimuli//1.5/stimNo158r0c0v1.5.jpg	 r	 7.710	 GoodTrial	 1.5	 bl
30	 7	 1	 left	 LineStimuli//1.5/stimNo99r10c3v1.5.jpg	 l	 2.334	 GoodTrial	 1.5	 bl
31	 7	 0	 x	 LineStimuli//1.5/stimNo152r0c0v1.5.jpg	 r	 4.494	 GoodTrial	 1.5	 bl
32	 7	 1	 left	 LineStimuli//1.5/stimNo117r7c8v1.5.jpg	 l	 3.616	 GoodTrial	 1.5	 bl
33	 7	 0	 x	 LineStimuli//1.5/stimNo146r0c0v1.5.jpg	 l	 2.368	 GoodTrial	 1.5	 bl
34	 7	 1	 left	 LineStimuli//1.5/stimNo110r7c3v1.5.jpg	 r	 3.408	 GoodTrial	 1.5	 bl
35	 7	 0	 x	 LineStimuli//1.5/stimNo141r0c0v1.5.jpg	 r	 3.639	 GoodTrial	 1.5	 bl
36	 7	 1	 right	 LineStimuli//1.5/stimNo105r3c18v1.5.jpg	 l	 1.991	 GoodTrial	 1.5	 bl
37	 7	 0	 x	 LineStimuli//1.5/stimNo153r0c0v1.5.jpg	 l	 2.786	 GoodTrial	 1.5	 bl
38	 7	 0	 x	 LineStimuli//1.5/stimNo150r0c0v1.5.jpg	 r	 3.019	 GoodTrial	 1.5	 bl
39	 7	 0	 x	 LineStimuli//1.5/stimNo159r0c0v1.5.jpg	 r	 3.813	 GoodTrial	 1.5	 bl
40	 7	 0	 x	 LineStimuli//1.5/stimNo145r0c0v1.5.jpg	 l	 3.643	 GoodTrial	 1.5	 bl
41	 7	 0	 x	 LineStimuli//1.5/stimNo144r0c0v1.5.jpg	 r	 2.826	 GoodTrial	 1.5	 bl
42	 7	 1	 right	 LineStimuli//1.5/stimNo84r3c18v1.5.jpg	 l	 2.221	 GoodTrial	 1.5	 bl
43	 7	 0	 x	 LineStimuli//1.5/stimNo129r0c0v1.5.jpg	 r	 3.069	 GoodTrial	 1.5	 bl
44	 7	 1	 right	 LineStimuli//1.5/stimNo104r5c18v1.5.jpg	 r	 3.165	 GoodTrial	 1.5	 bl
45	 7	 0	 x	 LineStimuli//1.5/stimNo125r0c0v1.5.jpg	 r	 4.373	 GoodTrial	 1.5	 bl
46	 7	 0	 x	 LineStimuli//1.5/stimNo122r0c0v1.5.jpg	 l	 2.642	 GoodTrial	 1.5	 bl
47	 7	 1	 right	 LineStimuli//1.5/stimNo100r6c20v1.5.jpg	 r	 2.671	 GoodTrial	 1.5	 bl
48	 7	 1	 right	 LineStimuli//1.5/stimNo82r11c15v1.5.jpg	 l	 4.248	 GoodTrial	 1.5	 bl
49	 7	 0	 x	 LineStimuli//1.5/stimNo137r0c0v1.5.jpg	 r	 2.132	 GoodTrial	 1.5	 bl
50	 7	 1	 right	 LineStimuli//1.5/stimNo118r9c20v1.5.jpg	 r	 3.768	 GoodTrial	 1.5	 bl
