Trial	Block	Target_pr	Target_side	Name	Key	RT	Message	Block_Type	Condition
1	 1	 1	 left	 LineStimuli//3.8/stimNo115r14c10v3.8.jpg	 l	 7.915	 GoodTrial	 3.8	 bl
2	 1	 1	 left	 LineStimuli//3.8/stimNo109r11c8v3.8.jpg	 l	 2.441	 GoodTrial	 3.8	 bl
3	 1	 1	 left	 LineStimuli//3.8/stimNo113r14c9v3.8.jpg	 l	 4.419	 GoodTrial	 3.8	 bl
4	 1	 0	 x	 LineStimuli//3.8/stimNo146r0c0v3.8.jpg	 r	 7.427	 GoodTrial	 3.8	 bl
5	 1	 1	 right	 LineStimuli//3.8/stimNo95r5c21v3.8.jpg	 l	 3.547	 GoodTrial	 3.8	 bl
6	 1	 0	 x	 LineStimuli//3.8/stimNo131r0c0v3.8.jpg	 r	 8.156	 GoodTrial	 3.8	 bl
7	 1	 0	 x	 LineStimuli//3.8/stimNo136r0c0v3.8.jpg	 r	 6.952	 GoodTrial	 3.8	 bl
8	 1	 1	 right	 LineStimuli//3.8/stimNo90r8c17v3.8.jpg	 l	 2.226	 GoodTrial	 3.8	 bl
9	 1	 1	 right	 LineStimuli//3.8/stimNo107r9c18v3.8.jpg	 r	 2.303	 GoodTrial	 3.8	 bl
10	 1	 0	 x	 LineStimuli//3.8/stimNo148r0c0v3.8.jpg	 r	 4.420	 GoodTrial	 3.8	 bl
11	 1	 0	 x	 LineStimuli//3.8/stimNo154r0c0v3.8.jpg	 r	 5.796	 GoodTrial	 3.8	 bl
12	 1	 1	 left	 LineStimuli//3.8/stimNo103r11c7v3.8.jpg	 l	 2.460	 GoodTrial	 3.8	 bl
13	 1	 1	 left	 LineStimuli//3.8/stimNo110r7c9v3.8.jpg	 l	 2.394	 GoodTrial	 3.8	 bl
14	 1	 0	 x	 LineStimuli//3.8/stimNo145r0c0v3.8.jpg	 r	 4.363	 GoodTrial	 3.8	 bl
15	 1	 0	 x	 LineStimuli//3.8/stimNo127r0c0v3.8.jpg	 r	 5.727	 GoodTrial	 3.8	 bl
16	 1	 1	 left	 LineStimuli//3.8/stimNo116r7c3v3.8.jpg	 l	 3.686	 GoodTrial	 3.8	 bl
17	 1	 0	 x	 LineStimuli//3.8/stimNo124r0c0v3.8.jpg	 r	 6.073	 GoodTrial	 3.8	 bl
18	 1	 1	 right	 LineStimuli//3.8/stimNo87r6c13v3.8.jpg	 l	 2.936	 GoodTrial	 3.8	 bl
19	 1	 1	 left	 LineStimuli//3.8/stimNo106r9c9v3.8.jpg	 r	 4.264	 GoodTrial	 3.8	 bl
20	 1	 1	 left	 LineStimuli//3.8/stimNo98r2c9v3.8.jpg	 l	 2.549	 GoodTrial	 3.8	 bl
21	 1	 1	 left	 LineStimuli//3.8/stimNo119r9c8v3.8.jpg	 l	 2.863	 GoodTrial	 3.8	 bl
22	 1	 0	 x	 LineStimuli//3.8/stimNo149r0c0v3.8.jpg	 x	 4.227	 GoodTrial	 3.8	 bl
23	 1	 0	 x	 LineStimuli//3.8/stimNo160r0c0v3.8.jpg	 r	 5.141	 GoodTrial	 3.8	 bl
24	 1	 1	 left	 LineStimuli//3.8/stimNo104r12c8v3.8.jpg	 l	 2.331	 GoodTrial	 3.8	 bl
25	 1	 0	 x	 LineStimuli//3.8/stimNo152r0c0v3.8.jpg	 r	 6.393	 GoodTrial	 3.8	 bl
26	 1	 0	 x	 LineStimuli//3.8/stimNo142r0c0v3.8.jpg	 r	 2.632	 GoodTrial	 3.8	 bl
27	 1	 1	 left	 LineStimuli//3.8/stimNo97r15c9v3.8.jpg	 l	 2.599	 GoodTrial	 3.8	 bl
28	 1	 1	 right	 LineStimuli//3.8/stimNo102r10c17v3.8.jpg	 l	 2.154	 GoodTrial	 3.8	 bl
29	 1	 0	 x	 LineStimuli//3.8/stimNo140r0c0v3.8.jpg	 r	 2.818	 GoodTrial	 3.8	 bl
30	 1	 0	 x	 LineStimuli//3.8/stimNo134r0c0v3.8.jpg	 r	 3.125	 GoodTrial	 3.8	 bl
31	 1	 1	 right	 LineStimuli//3.8/stimNo96r2c13v3.8.jpg	 l	 2.167	 GoodTrial	 3.8	 bl
32	 1	 0	 x	 LineStimuli//3.8/stimNo138r0c0v3.8.jpg	 r	 2.937	 GoodTrial	 3.8	 bl
33	 1	 1	 left	 LineStimuli//3.8/stimNo105r2c6v3.8.jpg	 l	 2.533	 GoodTrial	 3.8	 bl
34	 1	 1	 left	 LineStimuli//3.8/stimNo83r9c9v3.8.jpg	 l	 2.099	 GoodTrial	 3.8	 bl
35	 1	 1	 right	 LineStimuli//3.8/stimNo92r6c21v3.8.jpg	 l	 2.472	 GoodTrial	 3.8	 bl
36	 1	 0	 x	 LineStimuli//3.8/stimNo132r0c0v3.8.jpg	 r	 3.729	 GoodTrial	 3.8	 bl
37	 1	 0	 x	 LineStimuli//3.8/stimNo128r0c0v3.8.jpg	 r	 3.242	 GoodTrial	 3.8	 bl
38	 1	 0	 x	 LineStimuli//3.8/stimNo151r0c0v3.8.jpg	 r	 4.932	 GoodTrial	 3.8	 bl
39	 1	 0	 x	 LineStimuli//3.8/stimNo141r0c0v3.8.jpg	 r	 2.379	 GoodTrial	 3.8	 bl
40	 1	 0	 x	 LineStimuli//3.8/stimNo130r0c0v3.8.jpg	 r	 2.436	 GoodTrial	 3.8	 bl
41	 1	 0	 x	 LineStimuli//3.8/stimNo155r0c0v3.8.jpg	 r	 3.336	 GoodTrial	 3.8	 bl
42	 1	 1	 right	 LineStimuli//3.8/stimNo111r15c20v3.8.jpg	 l	 2.548	 GoodTrial	 3.8	 bl
43	 1	 1	 right	 LineStimuli//3.8/stimNo117r6c17v3.8.jpg	 l	 2.226	 GoodTrial	 3.8	 bl
44	 1	 0	 x	 LineStimuli//3.8/stimNo150r0c0v3.8.jpg	 r	 5.077	 GoodTrial	 3.8	 bl
45	 1	 1	 left	 LineStimuli//3.8/stimNo89r10c7v3.8.jpg	 l	 2.339	 GoodTrial	 3.8	 bl
46	 1	 0	 x	 LineStimuli//3.8/stimNo122r0c0v3.8.jpg	 r	 4.792	 GoodTrial	 3.8	 bl
47	 1	 1	 left	 LineStimuli//3.8/stimNo108r3c6v3.8.jpg	 l	 3.074	 GoodTrial	 3.8	 bl
48	 1	 1	 left	 LineStimuli//3.8/stimNo86r7c7v3.8.jpg	 l	 2.019	 GoodTrial	 3.8	 bl
49	 1	 0	 x	 LineStimuli//3.8/stimNo144r0c0v3.8.jpg	 r	 2.734	 GoodTrial	 3.8	 bl
50	 1	 1	 right	 LineStimuli//3.8/stimNo91r10c16v3.8.jpg	 l	 1.966	 GoodTrial	 3.8	 bl
1	 2	 1	 right	 LineStimuli//1.8/stimNo97r15c18v1.8.jpg	 l	 6.004	 GoodTrial	 1.8	 bl
2	 2	 1	 left	 LineStimuli//1.8/stimNo89r11c6v1.8.jpg	 l	 5.048	 GoodTrial	 1.8	 bl
3	 2	 0	 x	 LineStimuli//1.8/stimNo132r0c0v1.8.jpg	 r	 9.259	 GoodTrial	 1.8	 bl
4	 2	 1	 right	 LineStimuli//1.8/stimNo112r6c15v1.8.jpg	 l	 12.036	 GoodTrial	 1.8	 bl
5	 2	 0	 x	 LineStimuli//1.8/stimNo159r0c0v1.8.jpg	 r	 14.760	 GoodTrial	 1.8	 bl
6	 2	 0	 x	 LineStimuli//1.8/stimNo147r0c0v1.8.jpg	 r	 13.167	 GoodTrial	 1.8	 bl
7	 2	 1	 left	 LineStimuli//1.8/stimNo116r4c7v1.8.jpg	 l	 2.756	 GoodTrial	 1.8	 bl
8	 2	 1	 right	 LineStimuli//1.8/stimNo101r4c13v1.8.jpg	 r	 17.963	 GoodTrial	 1.8	 bl
9	 2	 1	 left	 LineStimuli//1.8/stimNo98r15c5v1.8.jpg	 r	 14.646	 GoodTrial	 1.8	 bl
10	 2	 1	 left	 LineStimuli//1.8/stimNo85r13c2v1.8.jpg	 r	 24.197	 GoodTrial	 1.8	 bl
11	 2	 1	 right	 LineStimuli//1.8/stimNo90r15c13v1.8.jpg	 l	 9.008	 GoodTrial	 1.8	 bl
12	 2	 0	 x	 LineStimuli//1.8/stimNo134r0c0v1.8.jpg	 l	 26.141	 GoodTrial	 1.8	 bl
13	 2	 0	 x	 LineStimuli//1.8/stimNo129r0c0v1.8.jpg	 r	 14.846	 GoodTrial	 1.8	 bl
14	 2	 0	 x	 LineStimuli//1.8/stimNo150r0c0v1.8.jpg	 r	 23.865	 GoodTrial	 1.8	 bl
15	 2	 1	 right	 LineStimuli//1.8/stimNo82r7c18v1.8.jpg	 l	 7.570	 GoodTrial	 1.8	 bl
16	 2	 0	 x	 LineStimuli//1.8/stimNo156r0c0v1.8.jpg	 r	 19.666	 GoodTrial	 1.8	 bl
17	 2	 1	 left	 LineStimuli//1.8/stimNo94r13c8v1.8.jpg	 r	 24.218	 GoodTrial	 1.8	 bl
18	 2	 1	 left	 LineStimuli//1.8/stimNo115r5c9v1.8.jpg	 l	 2.286	 GoodTrial	 1.8	 bl
19	 2	 1	 left	 LineStimuli//1.8/stimNo106r13c9v1.8.jpg	 l	 10.121	 GoodTrial	 1.8	 bl
20	 2	 0	 x	 LineStimuli//1.8/stimNo125r0c0v1.8.jpg	 r	 17.169	 GoodTrial	 1.8	 bl
21	 2	 1	 left	 LineStimuli//1.8/stimNo88r15c9v1.8.jpg	 r	 22.738	 GoodTrial	 1.8	 bl
22	 2	 0	 x	 LineStimuli//1.8/stimNo139r0c0v1.8.jpg	 r	 33.309	 GoodTrial	 1.8	 bl
23	 2	 1	 right	 LineStimuli//1.8/stimNo84r11c21v1.8.jpg	 l	 14.699	 GoodTrial	 1.8	 bl
24	 2	 0	 x	 LineStimuli//1.8/stimNo127r0c0v1.8.jpg	 r	 27.134	 GoodTrial	 1.8	 bl
25	 2	 0	 x	 LineStimuli//1.8/stimNo136r0c0v1.8.jpg	 r	 24.153	 GoodTrial	 1.8	 bl
26	 2	 0	 x	 LineStimuli//1.8/stimNo154r0c0v1.8.jpg	 r	 35.186	 GoodTrial	 1.8	 bl
27	 2	 0	 x	 LineStimuli//1.8/stimNo133r0c0v1.8.jpg	 r	 20.438	 GoodTrial	 1.8	 bl
28	 2	 1	 right	 LineStimuli//1.8/stimNo119r3c21v1.8.jpg	 r	 18.256	 GoodTrial	 1.8	 bl
29	 2	 0	 x	 LineStimuli//1.8/stimNo137r0c0v1.8.jpg	 r	 22.392	 GoodTrial	 1.8	 bl
30	 2	 1	 right	 LineStimuli//1.8/stimNo114r8c13v1.8.jpg	 l	 5.877	 GoodTrial	 1.8	 bl
31	 2	 1	 right	 LineStimuli//1.8/stimNo83r6c13v1.8.jpg	 l	 2.296	 GoodTrial	 1.8	 bl
32	 2	 1	 right	 LineStimuli//1.8/stimNo104r3c21v1.8.jpg	 r	 15.250	 GoodTrial	 1.8	 bl
33	 2	 0	 x	 LineStimuli//1.8/stimNo144r0c0v1.8.jpg	 r	 16.774	 GoodTrial	 1.8	 bl
34	 2	 1	 right	 LineStimuli//1.8/stimNo109r7c17v1.8.jpg	 l	 4.712	 GoodTrial	 1.8	 bl
35	 2	 1	 left	 LineStimuli//1.8/stimNo81r6c8v1.8.jpg	 l	 7.753	 GoodTrial	 1.8	 bl
36	 2	 0	 x	 LineStimuli//1.8/stimNo160r0c0v1.8.jpg	 r	 12.315	 GoodTrial	 1.8	 bl
37	 2	 0	 x	 LineStimuli//1.8/stimNo140r0c0v1.8.jpg	 r	 23.800	 GoodTrial	 1.8	 bl
38	 2	 1	 right	 LineStimuli//1.8/stimNo111r4c21v1.8.jpg	 l	 2.449	 GoodTrial	 1.8	 bl
39	 2	 1	 right	 LineStimuli//1.8/stimNo93r3c17v1.8.jpg	 l	 7.653	 GoodTrial	 1.8	 bl
40	 2	 0	 x	 LineStimuli//1.8/stimNo157r0c0v1.8.jpg	 r	 11.339	 GoodTrial	 1.8	 bl
41	 2	 1	 left	 LineStimuli//1.8/stimNo91r14c4v1.8.jpg	 r	 19.533	 GoodTrial	 1.8	 bl
42	 2	 0	 x	 LineStimuli//1.8/stimNo130r0c0v1.8.jpg	 r	 24.805	 GoodTrial	 1.8	 bl
43	 2	 1	 left	 LineStimuli//1.8/stimNo86r14c4v1.8.jpg	 r	 33.618	 GoodTrial	 1.8	 bl
44	 2	 0	 x	 LineStimuli//1.8/stimNo121r0c0v1.8.jpg	 r	 21.461	 GoodTrial	 1.8	 bl
45	 2	 1	 left	 LineStimuli//1.8/stimNo120r14c9v1.8.jpg	 l	 19.397	 GoodTrial	 1.8	 bl
46	 2	 0	 x	 LineStimuli//1.8/stimNo141r0c0v1.8.jpg	 r	 19.860	 GoodTrial	 1.8	 bl
47	 2	 1	 right	 LineStimuli//1.8/stimNo99r12c16v1.8.jpg	 l	 4.115	 GoodTrial	 1.8	 bl
48	 2	 1	 right	 LineStimuli//1.8/stimNo92r10c18v1.8.jpg	 r	 27.809	 GoodTrial	 1.8	 bl
49	 2	 0	 x	 LineStimuli//1.8/stimNo142r0c0v1.8.jpg	 r	 17.332	 GoodTrial	 1.8	 bl
50	 2	 0	 x	 LineStimuli//1.8/stimNo152r0c0v1.8.jpg	 r	 25.685	 GoodTrial	 1.8	 bl
1	 3	 0	 x	 LineStimuli//2.8/stimNo159r0c0v2.8.jpg	 r	 19.346	 GoodTrial	 2.8	 bl
2	 3	 1	 right	 LineStimuli//2.8/stimNo92r14c21v2.8.jpg	 l	 10.862	 GoodTrial	 2.8	 bl
3	 3	 0	 x	 LineStimuli//2.8/stimNo135r0c0v2.8.jpg	 r	 18.477	 GoodTrial	 2.8	 bl
4	 3	 1	 right	 LineStimuli//2.8/stimNo99r9c18v2.8.jpg	 l	 2.498	 GoodTrial	 2.8	 bl
5	 3	 1	 right	 LineStimuli//2.8/stimNo106r13c20v2.8.jpg	 l	 2.800	 GoodTrial	 2.8	 bl
6	 3	 0	 x	 LineStimuli//2.8/stimNo126r0c0v2.8.jpg	 r	 5.363	 GoodTrial	 2.8	 bl
7	 3	 0	 x	 LineStimuli//2.8/stimNo122r0c0v2.8.jpg	 r	 5.321	 GoodTrial	 2.8	 bl
8	 3	 0	 x	 LineStimuli//2.8/stimNo129r0c0v2.8.jpg	 r	 6.594	 GoodTrial	 2.8	 bl
9	 3	 0	 x	 LineStimuli//2.8/stimNo140r0c0v2.8.jpg	 r	 6.693	 GoodTrial	 2.8	 bl
10	 3	 1	 left	 LineStimuli//2.8/stimNo97r11c4v2.8.jpg	 r	 8.134	 GoodTrial	 2.8	 bl
11	 3	 0	 x	 LineStimuli//2.8/stimNo132r0c0v2.8.jpg	 r	 13.284	 GoodTrial	 2.8	 bl
12	 3	 1	 left	 LineStimuli//2.8/stimNo86r15c6v2.8.jpg	 l	 2.544	 GoodTrial	 2.8	 bl
13	 3	 1	 left	 LineStimuli//2.8/stimNo91r2c3v2.8.jpg	 l	 2.294	 GoodTrial	 2.8	 bl
14	 3	 1	 right	 LineStimuli//2.8/stimNo115r9c14v2.8.jpg	 l	 1.801	 GoodTrial	 2.8	 bl
15	 3	 0	 x	 LineStimuli//2.8/stimNo147r0c0v2.8.jpg	 r	 8.631	 GoodTrial	 2.8	 bl
16	 3	 0	 x	 LineStimuli//2.8/stimNo151r0c0v2.8.jpg	 r	 6.222	 GoodTrial	 2.8	 bl
17	 3	 1	 left	 LineStimuli//2.8/stimNo94r13c7v2.8.jpg	 l	 2.210	 GoodTrial	 2.8	 bl
18	 3	 1	 right	 LineStimuli//2.8/stimNo81r8c14v2.8.jpg	 l	 1.748	 GoodTrial	 2.8	 bl
19	 3	 0	 x	 LineStimuli//2.8/stimNo131r0c0v2.8.jpg	 r	 5.139	 GoodTrial	 2.8	 bl
20	 3	 0	 x	 LineStimuli//2.8/stimNo145r0c0v2.8.jpg	 r	 5.138	 GoodTrial	 2.8	 bl
21	 3	 1	 left	 LineStimuli//2.8/stimNo102r3c2v2.8.jpg	 l	 3.259	 GoodTrial	 2.8	 bl
22	 3	 1	 right	 LineStimuli//2.8/stimNo117r11c17v2.8.jpg	 l	 1.784	 GoodTrial	 2.8	 bl
23	 3	 1	 left	 LineStimuli//2.8/stimNo87r11c8v2.8.jpg	 l	 2.016	 GoodTrial	 2.8	 bl
24	 3	 1	 left	 LineStimuli//2.8/stimNo108r13c6v2.8.jpg	 l	 1.911	 GoodTrial	 2.8	 bl
25	 3	 1	 right	 LineStimuli//2.8/stimNo118r5c16v2.8.jpg	 l	 1.793	 GoodTrial	 2.8	 bl
26	 3	 0	 x	 LineStimuli//2.8/stimNo153r0c0v2.8.jpg	 r	 6.184	 GoodTrial	 2.8	 bl
27	 3	 0	 x	 LineStimuli//2.8/stimNo139r0c0v2.8.jpg	 r	 9.809	 GoodTrial	 2.8	 bl
28	 3	 0	 x	 LineStimuli//2.8/stimNo141r0c0v2.8.jpg	 r	 6.733	 GoodTrial	 2.8	 bl
29	 3	 0	 x	 LineStimuli//2.8/stimNo142r0c0v2.8.jpg	 r	 4.805	 GoodTrial	 2.8	 bl
30	 3	 1	 right	 LineStimuli//2.8/stimNo111r9c15v2.8.jpg	 l	 2.559	 GoodTrial	 2.8	 bl
31	 3	 0	 x	 LineStimuli//2.8/stimNo123r0c0v2.8.jpg	 r	 4.550	 GoodTrial	 2.8	 bl
32	 3	 0	 x	 LineStimuli//2.8/stimNo158r0c0v2.8.jpg	 r	 4.693	 GoodTrial	 2.8	 bl
33	 3	 1	 right	 LineStimuli//2.8/stimNo85r4c15v2.8.jpg	 l	 2.140	 GoodTrial	 2.8	 bl
34	 3	 1	 right	 LineStimuli//2.8/stimNo100r8c13v2.8.jpg	 l	 1.961	 GoodTrial	 2.8	 bl
35	 3	 0	 x	 LineStimuli//2.8/stimNo150r0c0v2.8.jpg	 r	 4.445	 GoodTrial	 2.8	 bl
36	 3	 0	 x	 LineStimuli//2.8/stimNo160r0c0v2.8.jpg	 r	 5.536	 GoodTrial	 2.8	 bl
37	 3	 1	 left	 LineStimuli//2.8/stimNo88r15c3v2.8.jpg	 l	 1.984	 GoodTrial	 2.8	 bl
38	 3	 1	 left	 LineStimuli//2.8/stimNo89r12c4v2.8.jpg	 l	 1.670	 GoodTrial	 2.8	 bl
39	 3	 0	 x	 LineStimuli//2.8/stimNo152r0c0v2.8.jpg	 r	 3.045	 GoodTrial	 2.8	 bl
40	 3	 1	 right	 LineStimuli//2.8/stimNo93r9c20v2.8.jpg	 l	 1.863	 GoodTrial	 2.8	 bl
41	 3	 1	 left	 LineStimuli//2.8/stimNo82r4c6v2.8.jpg	 l	 1.778	 GoodTrial	 2.8	 bl
42	 3	 1	 right	 LineStimuli//2.8/stimNo112r13c17v2.8.jpg	 l	 1.999	 GoodTrial	 2.8	 bl
43	 3	 0	 x	 LineStimuli//2.8/stimNo124r0c0v2.8.jpg	 r	 3.310	 GoodTrial	 2.8	 bl
44	 3	 1	 left	 LineStimuli//2.8/stimNo107r5c6v2.8.jpg	 l	 2.138	 GoodTrial	 2.8	 bl
45	 3	 0	 x	 LineStimuli//2.8/stimNo125r0c0v2.8.jpg	 r	 4.497	 GoodTrial	 2.8	 bl
46	 3	 1	 right	 LineStimuli//2.8/stimNo110r7c14v2.8.jpg	 l	 2.555	 GoodTrial	 2.8	 bl
47	 3	 0	 x	 LineStimuli//2.8/stimNo148r0c0v2.8.jpg	 r	 5.315	 GoodTrial	 2.8	 bl
48	 3	 1	 right	 LineStimuli//2.8/stimNo101r12c16v2.8.jpg	 l	 1.827	 GoodTrial	 2.8	 bl
49	 3	 0	 x	 LineStimuli//2.8/stimNo149r0c0v2.8.jpg	 r	 3.696	 GoodTrial	 2.8	 bl
50	 3	 1	 left	 LineStimuli//2.8/stimNo119r8c5v2.8.jpg	 l	 1.805	 GoodTrial	 2.8	 bl
1	 4	 1	 left	 LineStimuli//3.3/stimNo85r6c4v3.3.jpg	 l	 2.228	 GoodTrial	 3.3	 bl
2	 4	 1	 right	 LineStimuli//3.3/stimNo105r7c20v3.3.jpg	 l	 1.964	 GoodTrial	 3.3	 bl
3	 4	 0	 x	 LineStimuli//3.3/stimNo134r0c0v3.3.jpg	 r	 2.723	 GoodTrial	 3.3	 bl
4	 4	 0	 x	 LineStimuli//3.3/stimNo155r0c0v3.3.jpg	 r	 2.474	 GoodTrial	 3.3	 bl
5	 4	 0	 x	 LineStimuli//3.3/stimNo141r0c0v3.3.jpg	 r	 2.831	 GoodTrial	 3.3	 bl
6	 4	 0	 x	 LineStimuli//3.3/stimNo151r0c0v3.3.jpg	 r	 1.891	 GoodTrial	 3.3	 bl
7	 4	 1	 left	 LineStimuli//3.3/stimNo90r2c9v3.3.jpg	 l	 2.245	 GoodTrial	 3.3	 bl
8	 4	 1	 left	 LineStimuli//3.3/stimNo117r2c5v3.3.jpg	 l	 1.966	 GoodTrial	 3.3	 bl
9	 4	 1	 left	 LineStimuli//3.3/stimNo92r10c7v3.3.jpg	 l	 1.774	 GoodTrial	 3.3	 bl
10	 4	 1	 right	 LineStimuli//3.3/stimNo88r9c14v3.3.jpg	 l	 1.717	 GoodTrial	 3.3	 bl
11	 4	 0	 x	 LineStimuli//3.3/stimNo127r0c0v3.3.jpg	 r	 3.467	 GoodTrial	 3.3	 bl
12	 4	 0	 x	 LineStimuli//3.3/stimNo148r0c0v3.3.jpg	 r	 2.988	 GoodTrial	 3.3	 bl
13	 4	 0	 x	 LineStimuli//3.3/stimNo135r0c0v3.3.jpg	 r	 5.860	 GoodTrial	 3.3	 bl
14	 4	 0	 x	 LineStimuli//3.3/stimNo132r0c0v3.3.jpg	 r	 5.834	 GoodTrial	 3.3	 bl
15	 4	 1	 left	 LineStimuli//3.3/stimNo100r3c3v3.3.jpg	 l	 2.253	 GoodTrial	 3.3	 bl
16	 4	 0	 x	 LineStimuli//3.3/stimNo157r0c0v3.3.jpg	 r	 4.384	 GoodTrial	 3.3	 bl
17	 4	 1	 right	 LineStimuli//3.3/stimNo120r8c14v3.3.jpg	 l	 1.707	 GoodTrial	 3.3	 bl
18	 4	 1	 left	 LineStimuli//3.3/stimNo95r15c8v3.3.jpg	 l	 2.188	 GoodTrial	 3.3	 bl
19	 4	 1	 left	 LineStimuli//3.3/stimNo93r3c5v3.3.jpg	 l	 2.565	 GoodTrial	 3.3	 bl
20	 4	 1	 right	 LineStimuli//3.3/stimNo96r8c18v3.3.jpg	 l	 2.186	 GoodTrial	 3.3	 bl
21	 4	 0	 x	 LineStimuli//3.3/stimNo156r0c0v3.3.jpg	 r	 10.783	 GoodTrial	 3.3	 bl
22	 4	 1	 left	 LineStimuli//3.3/stimNo115r3c4v3.3.jpg	 l	 1.816	 GoodTrial	 3.3	 bl
23	 4	 1	 left	 LineStimuli//3.3/stimNo106r9c9v3.3.jpg	 l	 2.623	 GoodTrial	 3.3	 bl
24	 4	 0	 x	 LineStimuli//3.3/stimNo154r0c0v3.3.jpg	 r	 9.923	 GoodTrial	 3.3	 bl
25	 4	 0	 x	 LineStimuli//3.3/stimNo128r0c0v3.3.jpg	 r	 4.528	 GoodTrial	 3.3	 bl
26	 4	 0	 x	 LineStimuli//3.3/stimNo152r0c0v3.3.jpg	 r	 4.478	 GoodTrial	 3.3	 bl
27	 4	 0	 x	 LineStimuli//3.3/stimNo137r0c0v3.3.jpg	 r	 3.443	 GoodTrial	 3.3	 bl
28	 4	 0	 x	 LineStimuli//3.3/stimNo142r0c0v3.3.jpg	 r	 4.517	 GoodTrial	 3.3	 bl
29	 4	 1	 right	 LineStimuli//3.3/stimNo99r6c17v3.3.jpg	 l	 1.672	 GoodTrial	 3.3	 bl
30	 4	 0	 x	 LineStimuli//3.3/stimNo131r0c0v3.3.jpg	 r	 3.819	 GoodTrial	 3.3	 bl
31	 4	 0	 x	 LineStimuli//3.3/stimNo138r0c0v3.3.jpg	 r	 4.291	 GoodTrial	 3.3	 bl
32	 4	 0	 x	 LineStimuli//3.3/stimNo158r0c0v3.3.jpg	 r	 3.213	 GoodTrial	 3.3	 bl
33	 4	 1	 right	 LineStimuli//3.3/stimNo97r6c13v3.3.jpg	 l	 1.851	 GoodTrial	 3.3	 bl
34	 4	 0	 x	 LineStimuli//3.3/stimNo143r0c0v3.3.jpg	 r	 3.296	 GoodTrial	 3.3	 bl
35	 4	 1	 right	 LineStimuli//3.3/stimNo102r13c13v3.3.jpg	 l	 1.809	 GoodTrial	 3.3	 bl
36	 4	 1	 right	 LineStimuli//3.3/stimNo87r15c13v3.3.jpg	 r	 4.024	 GoodTrial	 3.3	 bl
37	 4	 0	 x	 LineStimuli//3.3/stimNo124r0c0v3.3.jpg	 r	 3.991	 GoodTrial	 3.3	 bl
38	 4	 1	 left	 LineStimuli//3.3/stimNo111r15c7v3.3.jpg	 l	 1.705	 GoodTrial	 3.3	 bl
39	 4	 1	 left	 LineStimuli//3.3/stimNo110r4c3v3.3.jpg	 l	 2.458	 GoodTrial	 3.3	 bl
40	 4	 0	 x	 LineStimuli//3.3/stimNo133r0c0v3.3.jpg	 r	 2.248	 GoodTrial	 3.3	 bl
41	 4	 1	 left	 LineStimuli//3.3/stimNo119r15c7v3.3.jpg	 l	 1.749	 GoodTrial	 3.3	 bl
42	 4	 0	 x	 LineStimuli//3.3/stimNo153r0c0v3.3.jpg	 r	 2.672	 GoodTrial	 3.3	 bl
43	 4	 1	 right	 LineStimuli//3.3/stimNo107r2c17v3.3.jpg	 l	 2.046	 GoodTrial	 3.3	 bl
44	 4	 1	 left	 LineStimuli//3.3/stimNo83r8c3v3.3.jpg	 l	 1.947	 GoodTrial	 3.3	 bl
45	 4	 0	 x	 LineStimuli//3.3/stimNo130r0c0v3.3.jpg	 r	 3.576	 GoodTrial	 3.3	 bl
46	 4	 1	 left	 LineStimuli//3.3/stimNo104r4c4v3.3.jpg	 l	 1.743	 GoodTrial	 3.3	 bl
47	 4	 1	 left	 LineStimuli//3.3/stimNo94r14c9v3.3.jpg	 l	 1.858	 GoodTrial	 3.3	 bl
48	 4	 1	 right	 LineStimuli//3.3/stimNo116r10c14v3.3.jpg	 l	 3.291	 GoodTrial	 3.3	 bl
49	 4	 1	 left	 LineStimuli//3.3/stimNo103r6c6v3.3.jpg	 l	 1.731	 GoodTrial	 3.3	 bl
50	 4	 0	 x	 LineStimuli//3.3/stimNo122r0c0v3.3.jpg	 r	 4.854	 GoodTrial	 3.3	 bl
1	 5	 1	 right	 LineStimuli//4.3/stimNo102r10c19v4.3.jpg	 l	 2.206	 GoodTrial	 4.3	 bl
2	 5	 0	 x	 LineStimuli//4.3/stimNo155r0c0v4.3.jpg	 r	 2.232	 GoodTrial	 4.3	 bl
3	 5	 0	 x	 LineStimuli//4.3/stimNo130r0c0v4.3.jpg	 x	 2.744	 GoodTrial	 4.3	 bl
4	 5	 0	 x	 LineStimuli//4.3/stimNo138r0c0v4.3.jpg	 r	 3.808	 GoodTrial	 4.3	 bl
5	 5	 0	 x	 LineStimuli//4.3/stimNo122r0c0v4.3.jpg	 r	 4.514	 GoodTrial	 4.3	 bl
6	 5	 1	 left	 LineStimuli//4.3/stimNo90r10c4v4.3.jpg	 l	 1.757	 GoodTrial	 4.3	 bl
7	 5	 0	 x	 LineStimuli//4.3/stimNo149r0c0v4.3.jpg	 r	 3.565	 GoodTrial	 4.3	 bl
8	 5	 0	 x	 LineStimuli//4.3/stimNo159r0c0v4.3.jpg	 r	 3.507	 GoodTrial	 4.3	 bl
9	 5	 1	 right	 LineStimuli//4.3/stimNo92r2c20v4.3.jpg	 l	 2.423	 GoodTrial	 4.3	 bl
10	 5	 1	 right	 LineStimuli//4.3/stimNo116r5c13v4.3.jpg	 l	 1.831	 GoodTrial	 4.3	 bl
11	 5	 1	 left	 LineStimuli//4.3/stimNo113r11c7v4.3.jpg	 l	 1.728	 GoodTrial	 4.3	 bl
12	 5	 0	 x	 LineStimuli//4.3/stimNo121r0c0v4.3.jpg	 r	 3.951	 GoodTrial	 4.3	 bl
13	 5	 0	 x	 LineStimuli//4.3/stimNo137r0c0v4.3.jpg	 r	 3.419	 GoodTrial	 4.3	 bl
14	 5	 0	 x	 LineStimuli//4.3/stimNo141r0c0v4.3.jpg	 r	 4.056	 GoodTrial	 4.3	 bl
15	 5	 0	 x	 LineStimuli//4.3/stimNo139r0c0v4.3.jpg	 r	 3.925	 GoodTrial	 4.3	 bl
16	 5	 1	 right	 LineStimuli//4.3/stimNo82r7c18v4.3.jpg	 l	 1.666	 GoodTrial	 4.3	 bl
17	 5	 0	 x	 LineStimuli//4.3/stimNo123r0c0v4.3.jpg	 r	 4.468	 GoodTrial	 4.3	 bl
18	 5	 1	 left	 LineStimuli//4.3/stimNo83r4c2v4.3.jpg	 l	 1.948	 GoodTrial	 4.3	 bl
19	 5	 0	 x	 LineStimuli//4.3/stimNo154r0c0v4.3.jpg	 r	 4.302	 GoodTrial	 4.3	 bl
20	 5	 0	 x	 LineStimuli//4.3/stimNo148r0c0v4.3.jpg	 r	 3.694	 GoodTrial	 4.3	 bl
21	 5	 0	 x	 LineStimuli//4.3/stimNo125r0c0v4.3.jpg	 r	 2.868	 GoodTrial	 4.3	 bl
22	 5	 0	 x	 LineStimuli//4.3/stimNo158r0c0v4.3.jpg	 r	 3.197	 GoodTrial	 4.3	 bl
23	 5	 0	 x	 LineStimuli//4.3/stimNo140r0c0v4.3.jpg	 r	 2.945	 GoodTrial	 4.3	 bl
24	 5	 1	 left	 LineStimuli//4.3/stimNo86r7c3v4.3.jpg	 l	 2.127	 GoodTrial	 4.3	 bl
25	 5	 1	 left	 LineStimuli//4.3/stimNo110r6c7v4.3.jpg	 l	 1.880	 GoodTrial	 4.3	 bl
26	 5	 0	 x	 LineStimuli//4.3/stimNo143r0c0v4.3.jpg	 r	 3.235	 GoodTrial	 4.3	 bl
27	 5	 0	 x	 LineStimuli//4.3/stimNo124r0c0v4.3.jpg	 r	 3.262	 GoodTrial	 4.3	 bl
28	 5	 0	 x	 LineStimuli//4.3/stimNo128r0c0v4.3.jpg	 r	 2.545	 GoodTrial	 4.3	 bl
29	 5	 0	 x	 LineStimuli//4.3/stimNo134r0c0v4.3.jpg	 r	 2.522	 GoodTrial	 4.3	 bl
30	 5	 0	 x	 LineStimuli//4.3/stimNo142r0c0v4.3.jpg	 r	 2.471	 GoodTrial	 4.3	 bl
31	 5	 1	 right	 LineStimuli//4.3/stimNo91r9c13v4.3.jpg	 l	 1.709	 GoodTrial	 4.3	 bl
32	 5	 0	 x	 LineStimuli//4.3/stimNo126r0c0v4.3.jpg	 r	 5.055	 GoodTrial	 4.3	 bl
33	 5	 1	 right	 LineStimuli//4.3/stimNo119r12c17v4.3.jpg	 l	 1.663	 GoodTrial	 4.3	 bl
34	 5	 0	 x	 LineStimuli//4.3/stimNo132r0c0v4.3.jpg	 r	 5.285	 GoodTrial	 4.3	 bl
35	 5	 1	 right	 LineStimuli//4.3/stimNo120r8c18v4.3.jpg	 l	 1.715	 GoodTrial	 4.3	 bl
36	 5	 1	 left	 LineStimuli//4.3/stimNo108r5c8v4.3.jpg	 r	 2.508	 GoodTrial	 4.3	 bl
37	 5	 0	 x	 LineStimuli//4.3/stimNo147r0c0v4.3.jpg	 r	 2.500	 GoodTrial	 4.3	 bl
38	 5	 1	 left	 LineStimuli//4.3/stimNo111r10c9v4.3.jpg	 l	 2.082	 GoodTrial	 4.3	 bl
39	 5	 1	 right	 LineStimuli//4.3/stimNo89r3c17v4.3.jpg	 l	 1.733	 GoodTrial	 4.3	 bl
40	 5	 0	 x	 LineStimuli//4.3/stimNo153r0c0v4.3.jpg	 r	 2.291	 GoodTrial	 4.3	 bl
41	 5	 1	 right	 LineStimuli//4.3/stimNo114r10c15v4.3.jpg	 l	 1.733	 GoodTrial	 4.3	 bl
42	 5	 1	 left	 LineStimuli//4.3/stimNo87r3c5v4.3.jpg	 l	 2.206	 GoodTrial	 4.3	 bl
43	 5	 0	 x	 LineStimuli//4.3/stimNo152r0c0v4.3.jpg	 r	 2.637	 GoodTrial	 4.3	 bl
44	 5	 0	 x	 LineStimuli//4.3/stimNo144r0c0v4.3.jpg	 r	 2.683	 GoodTrial	 4.3	 bl
45	 5	 1	 left	 LineStimuli//4.3/stimNo105r14c6v4.3.jpg	 l	 1.641	 GoodTrial	 4.3	 bl
46	 5	 0	 x	 LineStimuli//4.3/stimNo133r0c0v4.3.jpg	 r	 3.724	 GoodTrial	 4.3	 bl
47	 5	 0	 x	 LineStimuli//4.3/stimNo151r0c0v4.3.jpg	 r	 3.010	 GoodTrial	 4.3	 bl
48	 5	 0	 x	 LineStimuli//4.3/stimNo131r0c0v4.3.jpg	 r	 2.451	 GoodTrial	 4.3	 bl
49	 5	 1	 right	 LineStimuli//4.3/stimNo94r12c13v4.3.jpg	 l	 1.941	 GoodTrial	 4.3	 bl
50	 5	 1	 right	 LineStimuli//4.3/stimNo84r15c20v4.3.jpg	 l	 2.107	 GoodTrial	 4.3	 bl
1	 6	 1	 left	 LineStimuli//2.3/stimNo108r15c6v2.3.jpg	 l	 5.007	 GoodTrial	 2.3	 bl
2	 6	 1	 right	 LineStimuli//2.3/stimNo102r6c18v2.3.jpg	 l	 2.783	 GoodTrial	 2.3	 bl
3	 6	 1	 left	 LineStimuli//2.3/stimNo115r7c3v2.3.jpg	 l	 2.199	 GoodTrial	 2.3	 bl
4	 6	 1	 left	 LineStimuli//2.3/stimNo116r2c2v2.3.jpg	 r	 4.138	 GoodTrial	 2.3	 bl
5	 6	 0	 x	 LineStimuli//2.3/stimNo125r0c0v2.3.jpg	 r	 9.684	 GoodTrial	 2.3	 bl
6	 6	 0	 x	 LineStimuli//2.3/stimNo147r0c0v2.3.jpg	 r	 9.731	 GoodTrial	 2.3	 bl
7	 6	 1	 left	 LineStimuli//2.3/stimNo88r15c2v2.3.jpg	 r	 8.605	 GoodTrial	 2.3	 bl
8	 6	 1	 right	 LineStimuli//2.3/stimNo111r11c21v2.3.jpg	 r	 12.966	 GoodTrial	 2.3	 bl
9	 6	 1	 left	 LineStimuli//2.3/stimNo95r13c9v2.3.jpg	 l	 3.066	 GoodTrial	 2.3	 bl
10	 6	 0	 x	 LineStimuli//2.3/stimNo128r0c0v2.3.jpg	 r	 10.261	 GoodTrial	 2.3	 bl
11	 6	 0	 x	 LineStimuli//2.3/stimNo129r0c0v2.3.jpg	 r	 7.857	 GoodTrial	 2.3	 bl
12	 6	 1	 left	 LineStimuli//2.3/stimNo117r11c8v2.3.jpg	 l	 2.308	 GoodTrial	 2.3	 bl
13	 6	 1	 left	 LineStimuli//2.3/stimNo112r3c2v2.3.jpg	 l	 2.518	 GoodTrial	 2.3	 bl
14	 6	 1	 right	 LineStimuli//2.3/stimNo105r14c14v2.3.jpg	 l	 5.450	 GoodTrial	 2.3	 bl
15	 6	 1	 right	 LineStimuli//2.3/stimNo118r4c17v2.3.jpg	 l	 2.463	 GoodTrial	 2.3	 bl
16	 6	 0	 x	 LineStimuli//2.3/stimNo145r0c0v2.3.jpg	 r	 15.132	 GoodTrial	 2.3	 bl
17	 6	 0	 x	 LineStimuli//2.3/stimNo132r0c0v2.3.jpg	 r	 10.857	 GoodTrial	 2.3	 bl
18	 6	 1	 left	 LineStimuli//2.3/stimNo81r4c3v2.3.jpg	 l	 1.904	 GoodTrial	 2.3	 bl
19	 6	 1	 right	 LineStimuli//2.3/stimNo92r10c17v2.3.jpg	 l	 1.880	 GoodTrial	 2.3	 bl
20	 6	 0	 x	 LineStimuli//2.3/stimNo127r0c0v2.3.jpg	 r	 8.850	 GoodTrial	 2.3	 bl
21	 6	 0	 x	 LineStimuli//2.3/stimNo155r0c0v2.3.jpg	 r	 8.594	 GoodTrial	 2.3	 bl
22	 6	 1	 right	 LineStimuli//2.3/stimNo99r2c13v2.3.jpg	 l	 2.286	 GoodTrial	 2.3	 bl
23	 6	 0	 x	 LineStimuli//2.3/stimNo130r0c0v2.3.jpg	 r	 8.998	 GoodTrial	 2.3	 bl
24	 6	 0	 x	 LineStimuli//2.3/stimNo135r0c0v2.3.jpg	 r	 9.940	 GoodTrial	 2.3	 bl
25	 6	 0	 x	 LineStimuli//2.3/stimNo124r0c0v2.3.jpg	 r	 10.009	 GoodTrial	 2.3	 bl
26	 6	 1	 left	 LineStimuli//2.3/stimNo104r2c4v2.3.jpg	 l	 2.064	 GoodTrial	 2.3	 bl
27	 6	 1	 right	 LineStimuli//2.3/stimNo93r4c16v2.3.jpg	 l	 1.894	 GoodTrial	 2.3	 bl
28	 6	 0	 x	 LineStimuli//2.3/stimNo140r0c0v2.3.jpg	 r	 7.332	 GoodTrial	 2.3	 bl
29	 6	 0	 x	 LineStimuli//2.3/stimNo142r0c0v2.3.jpg	 r	 9.328	 GoodTrial	 2.3	 bl
30	 6	 1	 left	 LineStimuli//2.3/stimNo82r12c4v2.3.jpg	 l	 2.206	 GoodTrial	 2.3	 bl
31	 6	 0	 x	 LineStimuli//2.3/stimNo143r0c0v2.3.jpg	 r	 5.080	 GoodTrial	 2.3	 bl
32	 6	 0	 x	 LineStimuli//2.3/stimNo158r0c0v2.3.jpg	 r	 7.474	 GoodTrial	 2.3	 bl
33	 6	 1	 left	 LineStimuli//2.3/stimNo114r7c8v2.3.jpg	 l	 2.035	 GoodTrial	 2.3	 bl
34	 6	 1	 left	 LineStimuli//2.3/stimNo94r8c9v2.3.jpg	 l	 2.135	 GoodTrial	 2.3	 bl
35	 6	 0	 x	 LineStimuli//2.3/stimNo138r0c0v2.3.jpg	 r	 7.642	 GoodTrial	 2.3	 bl
36	 6	 0	 x	 LineStimuli//2.3/stimNo131r0c0v2.3.jpg	 r	 12.390	 GoodTrial	 2.3	 bl
37	 6	 0	 x	 LineStimuli//2.3/stimNo153r0c0v2.3.jpg	 r	 9.041	 GoodTrial	 2.3	 bl
38	 6	 1	 right	 LineStimuli//2.3/stimNo89r8c21v2.3.jpg	 l	 2.068	 GoodTrial	 2.3	 bl
39	 6	 0	 x	 LineStimuli//2.3/stimNo154r0c0v2.3.jpg	 r	 6.606	 GoodTrial	 2.3	 bl
40	 6	 1	 right	 LineStimuli//2.3/stimNo120r4c17v2.3.jpg	 l	 3.429	 GoodTrial	 2.3	 bl
41	 6	 0	 x	 LineStimuli//2.3/stimNo123r0c0v2.3.jpg	 r	 7.265	 GoodTrial	 2.3	 bl
42	 6	 0	 x	 LineStimuli//2.3/stimNo126r0c0v2.3.jpg	 r	 7.064	 GoodTrial	 2.3	 bl
43	 6	 0	 x	 LineStimuli//2.3/stimNo160r0c0v2.3.jpg	 r	 10.586	 GoodTrial	 2.3	 bl
44	 6	 1	 right	 LineStimuli//2.3/stimNo110r15c19v2.3.jpg	 r	 8.589	 GoodTrial	 2.3	 bl
45	 6	 0	 x	 LineStimuli//2.3/stimNo152r0c0v2.3.jpg	 r	 8.697	 GoodTrial	 2.3	 bl
46	 6	 1	 left	 LineStimuli//2.3/stimNo86r8c9v2.3.jpg	 l	 2.240	 GoodTrial	 2.3	 bl
47	 6	 0	 x	 LineStimuli//2.3/stimNo133r0c0v2.3.jpg	 r	 5.629	 GoodTrial	 2.3	 bl
48	 6	 1	 right	 LineStimuli//2.3/stimNo101r8c14v2.3.jpg	 l	 1.898	 GoodTrial	 2.3	 bl
49	 6	 1	 left	 LineStimuli//2.3/stimNo106r9c9v2.3.jpg	 l	 1.823	 GoodTrial	 2.3	 bl
50	 6	 1	 right	 LineStimuli//2.3/stimNo84r15c14v2.3.jpg	 l	 3.314	 GoodTrial	 2.3	 bl
1	 7	 1	 right	 LineStimuli//1.5/stimNo84r3c18v1.5.jpg	 r	 7.964	 GoodTrial	 1.5	 bl
2	 7	 1	 left	 LineStimuli//1.5/stimNo88r6c7v1.5.jpg	 l	 6.627	 GoodTrial	 1.5	 bl
3	 7	 0	 x	 LineStimuli//1.5/stimNo143r0c0v1.5.jpg	 r	 10.752	 GoodTrial	 1.5	 bl
4	 7	 1	 right	 LineStimuli//1.5/stimNo105r3c18v1.5.jpg	 r	 8.384	 GoodTrial	 1.5	 bl
5	 7	 1	 right	 LineStimuli//1.5/stimNo93r14c18v1.5.jpg	 r	 10.917	 GoodTrial	 1.5	 bl
6	 7	 1	 left	 LineStimuli//1.5/stimNo91r9c3v1.5.jpg	 r	 12.417	 GoodTrial	 1.5	 bl
7	 7	 1	 right	 LineStimuli//1.5/stimNo115r14c18v1.5.jpg	 r	 16.568	 GoodTrial	 1.5	 bl
8	 7	 1	 left	 LineStimuli//1.5/stimNo97r15c6v1.5.jpg	 r	 18.934	 GoodTrial	 1.5	 bl
9	 7	 1	 left	 LineStimuli//1.5/stimNo117r7c8v1.5.jpg	 l	 3.932	 GoodTrial	 1.5	 bl
10	 7	 1	 right	 LineStimuli//1.5/stimNo103r13c17v1.5.jpg	 r	 19.408	 GoodTrial	 1.5	 bl
11	 7	 0	 x	 LineStimuli//1.5/stimNo121r0c0v1.5.jpg	 r	 15.627	 GoodTrial	 1.5	 bl
12	 7	 1	 left	 LineStimuli//1.5/stimNo96r15c4v1.5.jpg	 r	 17.270	 GoodTrial	 1.5	 bl
13	 7	 1	 right	 LineStimuli//1.5/stimNo98r8c21v1.5.jpg	 r	 24.639	 GoodTrial	 1.5	 bl
14	 7	 0	 x	 LineStimuli//1.5/stimNo131r0c0v1.5.jpg	 l	 30.816	 GoodTrial	 1.5	 bl
15	 7	 0	 x	 LineStimuli//1.5/stimNo159r0c0v1.5.jpg	 r	 24.310	 GoodTrial	 1.5	 bl
16	 7	 0	 x	 LineStimuli//1.5/stimNo128r0c0v1.5.jpg	 r	 23.442	 GoodTrial	 1.5	 bl
17	 7	 0	 x	 LineStimuli//1.5/stimNo134r0c0v1.5.jpg	 r	 26.983	 GoodTrial	 1.5	 bl
18	 7	 0	 x	 LineStimuli//1.5/stimNo144r0c0v1.5.jpg	 r	 16.866	 GoodTrial	 1.5	 bl
19	 7	 1	 left	 LineStimuli//1.5/stimNo116r7c7v1.5.jpg	 l	 10.226	 GoodTrial	 1.5	 bl
20	 7	 1	 right	 LineStimuli//1.5/stimNo90r3c15v1.5.jpg	 r	 11.204	 GoodTrial	 1.5	 bl
21	 7	 0	 x	 LineStimuli//1.5/stimNo145r0c0v1.5.jpg	 r	 8.625	 GoodTrial	 1.5	 bl
22	 7	 0	 x	 LineStimuli//1.5/stimNo136r0c0v1.5.jpg	 r	 8.343	 GoodTrial	 1.5	 bl
23	 7	 0	 x	 LineStimuli//1.5/stimNo153r0c0v1.5.jpg	 r	 2.302	 GoodTrial	 1.5	 bl
24	 7	 0	 x	 LineStimuli//1.5/stimNo142r0c0v1.5.jpg	 r	 4.321	 GoodTrial	 1.5	 bl
25	 7	 1	 left	 LineStimuli//1.5/stimNo106r3c7v1.5.jpg	 r	 4.474	 GoodTrial	 1.5	 bl
26	 7	 0	 x	 LineStimuli//1.5/stimNo132r0c0v1.5.jpg	 r	 8.564	 GoodTrial	 1.5	 bl
27	 7	 1	 left	 LineStimuli//1.5/stimNo87r12c5v1.5.jpg	 l	 9.569	 GoodTrial	 1.5	 bl
28	 7	 0	 x	 LineStimuli//1.5/stimNo150r0c0v1.5.jpg	 r	 3.986	 GoodTrial	 1.5	 bl
29	 7	 0	 x	 LineStimuli//1.5/stimNo148r0c0v1.5.jpg	 r	 9.011	 GoodTrial	 1.5	 bl
30	 7	 0	 x	 LineStimuli//1.5/stimNo127r0c0v1.5.jpg	 r	 5.050	 GoodTrial	 1.5	 bl
31	 7	 1	 left	 LineStimuli//1.5/stimNo109r8c6v1.5.jpg	 l	 5.643	 GoodTrial	 1.5	 bl
32	 7	 0	 x	 LineStimuli//1.5/stimNo139r0c0v1.5.jpg	 r	 7.028	 GoodTrial	 1.5	 bl
33	 7	 0	 x	 LineStimuli//1.5/stimNo151r0c0v1.5.jpg	 l	 6.129	 GoodTrial	 1.5	 bl
34	 7	 1	 right	 LineStimuli//1.5/stimNo92r6c18v1.5.jpg	 r	 2.568	 GoodTrial	 1.5	 bl
35	 7	 1	 left	 LineStimuli//1.5/stimNo85r2c5v1.5.jpg	 l	 7.184	 GoodTrial	 1.5	 bl
36	 7	 1	 right	 LineStimuli//1.5/stimNo104r5c18v1.5.jpg	 r	 4.343	 GoodTrial	 1.5	 bl
37	 7	 0	 x	 LineStimuli//1.5/stimNo158r0c0v1.5.jpg	 r	 4.109	 GoodTrial	 1.5	 bl
38	 7	 1	 right	 LineStimuli//1.5/stimNo82r11c15v1.5.jpg	 r	 11.803	 GoodTrial	 1.5	 bl
39	 7	 1	 right	 LineStimuli//1.5/stimNo118r9c20v1.5.jpg	 r	 9.627	 GoodTrial	 1.5	 bl
40	 7	 0	 x	 LineStimuli//1.5/stimNo126r0c0v1.5.jpg	 r	 3.882	 GoodTrial	 1.5	 bl
41	 7	 1	 left	 LineStimuli//1.5/stimNo120r14c2v1.5.jpg	 r	 8.992	 GoodTrial	 1.5	 bl
42	 7	 0	 x	 LineStimuli//1.5/stimNo130r0c0v1.5.jpg	 r	 28.864	 GoodTrial	 1.5	 bl
43	 7	 0	 x	 LineStimuli//1.5/stimNo129r0c0v1.5.jpg	 r	 12.885	 GoodTrial	 1.5	 bl
44	 7	 1	 left	 LineStimuli//1.5/stimNo114r4c4v1.5.jpg	 l	 14.039	 GoodTrial	 1.5	 bl
45	 7	 1	 right	 LineStimuli//1.5/stimNo108r13c15v1.5.jpg	 l	 19.015	 GoodTrial	 1.5	 bl
46	 7	 1	 left	 LineStimuli//1.5/stimNo99r10c3v1.5.jpg	 l	 12.212	 GoodTrial	 1.5	 bl
47	 7	 0	 x	 LineStimuli//1.5/stimNo154r0c0v1.5.jpg	 r	 14.758	 GoodTrial	 1.5	 bl
48	 7	 1	 left	 LineStimuli//1.5/stimNo113r4c4v1.5.jpg	 r	 15.926	 GoodTrial	 1.5	 bl
49	 7	 0	 x	 LineStimuli//1.5/stimNo133r0c0v1.5.jpg	 r	 26.898	 GoodTrial	 1.5	 bl
50	 7	 1	 right	 LineStimuli//1.5/stimNo95r6c14v1.5.jpg	 l	 2.714	 GoodTrial	 1.5	 bl
