Trial	Block	Target_pr	Target_side	Name	Key	RT	Message	Block_Type	Condition
1	 1	 0	 x	 LineStimuli//allStim/stimNo148r0c0v1.5.jpg	 r	 15.597	 GoodTrial	 allStim	 ra
2	 1	 1	 left	 LineStimuli//allStim/stimNo83r12c7v1.5.jpg	 r	 9.963	 GoodTrial	 allStim	 ra
3	 1	 1	 right	 LineStimuli//allStim/stimNo99r12c16v1.8.jpg	 l	 2.692	 GoodTrial	 allStim	 ra
4	 1	 1	 right	 LineStimuli//allStim/stimNo108r9c21v1.8.jpg	 l	 3.822	 GoodTrial	 allStim	 ra
5	 1	 0	 x	 LineStimuli//allStim/stimNo127r0c0v1.8.jpg	 r	 9.066	 GoodTrial	 allStim	 ra
6	 1	 0	 x	 LineStimuli//allStim/stimNo127r0c0v2.8.jpg	 r	 4.104	 GoodTrial	 allStim	 ra
7	 1	 1	 left	 LineStimuli//allStim/stimNo112r9c5v1.5.jpg	 l	 5.640	 GoodTrial	 allStim	 ra
8	 1	 1	 right	 LineStimuli//allStim/stimNo99r9c18v2.8.jpg	 l	 3.663	 GoodTrial	 allStim	 ra
9	 1	 0	 x	 LineStimuli//allStim/stimNo142r0c0v4.3.jpg	 r	 3.828	 GoodTrial	 allStim	 ra
10	 1	 1	 left	 LineStimuli//allStim/stimNo120r14c2v1.5.jpg	 l	 2.338	 GoodTrial	 allStim	 ra
11	 1	 0	 x	 LineStimuli//allStim/stimNo122r0c0v3.8.jpg	 r	 3.572	 GoodTrial	 allStim	 ra
12	 1	 1	 right	 LineStimuli//allStim/stimNo95r6c14v1.5.jpg	 r	 9.591	 GoodTrial	 allStim	 ra
13	 1	 1	 left	 LineStimuli//allStim/stimNo115r7c3v2.3.jpg	 l	 1.728	 GoodTrial	 allStim	 ra
14	 1	 0	 x	 LineStimuli//allStim/stimNo156r0c0v2.8.jpg	 r	 4.053	 GoodTrial	 allStim	 ra
15	 1	 1	 right	 LineStimuli//allStim/stimNo105r14c14v2.3.jpg	 l	 2.664	 GoodTrial	 allStim	 ra
16	 1	 1	 left	 LineStimuli//allStim/stimNo111r10c9v4.3.jpg	 l	 1.792	 GoodTrial	 allStim	 ra
17	 1	 1	 left	 LineStimuli//allStim/stimNo116r4c7v2.8.jpg	 l	 1.933	 GoodTrial	 allStim	 ra
18	 1	 1	 left	 LineStimuli//allStim/stimNo94r13c7v2.8.jpg	 l	 2.030	 GoodTrial	 allStim	 ra
19	 1	 1	 right	 LineStimuli//allStim/stimNo94r6c17v3.8.jpg	 l	 1.957	 GoodTrial	 allStim	 ra
20	 1	 1	 left	 LineStimuli//allStim/stimNo86r5c7v3.3.jpg	 l	 1.619	 GoodTrial	 allStim	 ra
21	 1	 1	 right	 LineStimuli//allStim/stimNo102r10c19v4.3.jpg	 l	 1.551	 GoodTrial	 allStim	 ra
22	 1	 0	 x	 LineStimuli//allStim/stimNo123r0c0v3.8.jpg	 r	 4.060	 GoodTrial	 allStim	 ra
23	 1	 1	 right	 LineStimuli//allStim/stimNo111r4c21v1.8.jpg	 r	 13.539	 GoodTrial	 allStim	 ra
24	 1	 0	 x	 LineStimuli//allStim/stimNo142r0c0v1.5.jpg	 r	 14.981	 GoodTrial	 allStim	 ra
25	 1	 1	 right	 LineStimuli//allStim/stimNo90r15c13v1.8.jpg	 r	 10.300	 GoodTrial	 allStim	 ra
26	 1	 1	 right	 LineStimuli//allStim/stimNo107r2c17v3.3.jpg	 r	 2.302	 GoodTrial	 allStim	 ra
27	 1	 1	 right	 LineStimuli//allStim/stimNo85r4c15v2.8.jpg	 l	 2.155	 GoodTrial	 allStim	 ra
28	 1	 1	 right	 LineStimuli//allStim/stimNo102r14c17v1.8.jpg	 l	 2.381	 GoodTrial	 allStim	 ra
29	 1	 1	 right	 LineStimuli//allStim/stimNo84r6c16v3.3.jpg	 l	 1.917	 GoodTrial	 allStim	 ra
30	 1	 1	 left	 LineStimuli//allStim/stimNo115r3c4v3.3.jpg	 l	 1.971	 GoodTrial	 allStim	 ra
31	 1	 0	 x	 LineStimuli//allStim/stimNo140r0c0v2.8.jpg	 r	 4.396	 GoodTrial	 allStim	 ra
32	 1	 1	 right	 LineStimuli//allStim/stimNo112r6c15v1.8.jpg	 l	 2.029	 GoodTrial	 allStim	 ra
33	 1	 0	 x	 LineStimuli//allStim/stimNo156r0c0v1.5.jpg	 r	 23.087	 GoodTrial	 allStim	 ra
34	 1	 1	 left	 LineStimuli//allStim/stimNo97r11c4v2.8.jpg	 l	 1.982	 GoodTrial	 allStim	 ra
35	 1	 1	 right	 LineStimuli//allStim/stimNo100r9c13v1.8.jpg	 l	 1.941	 GoodTrial	 allStim	 ra
36	 1	 0	 x	 LineStimuli//allStim/stimNo140r0c0v3.8.jpg	 r	 3.433	 GoodTrial	 allStim	 ra
37	 1	 1	 right	 LineStimuli//allStim/stimNo107r2c19v1.5.jpg	 r	 17.420	 GoodTrial	 allStim	 ra
38	 1	 1	 left	 LineStimuli//allStim/stimNo95r13c9v2.3.jpg	 l	 1.928	 GoodTrial	 allStim	 ra
39	 1	 1	 right	 LineStimuli//allStim/stimNo100r8c13v2.8.jpg	 l	 1.753	 GoodTrial	 allStim	 ra
40	 1	 1	 left	 LineStimuli//allStim/stimNo110r7c3v1.5.jpg	 l	 14.660	 GoodTrial	 allStim	 ra
41	 1	 0	 x	 LineStimuli//allStim/stimNo156r0c0v3.3.jpg	 r	 3.420	 GoodTrial	 allStim	 ra
42	 1	 0	 x	 LineStimuli//allStim/stimNo143r0c0v3.3.jpg	 r	 4.853	 GoodTrial	 allStim	 ra
43	 1	 0	 x	 LineStimuli//allStim/stimNo128r0c0v1.5.jpg	 l	 7.108	 GoodTrial	 allStim	 ra
44	 1	 0	 x	 LineStimuli//allStim/stimNo155r0c0v3.3.jpg	 r	 4.402	 GoodTrial	 allStim	 ra
45	 1	 1	 left	 LineStimuli//allStim/stimNo116r2c2v2.3.jpg	 r	 13.886	 GoodTrial	 allStim	 ra
46	 1	 1	 left	 LineStimuli//allStim/stimNo83r4c2v4.3.jpg	 l	 2.072	 GoodTrial	 allStim	 ra
47	 1	 1	 right	 LineStimuli//allStim/stimNo101r7c16v3.3.jpg	 l	 1.853	 GoodTrial	 allStim	 ra
48	 1	 1	 left	 LineStimuli//allStim/stimNo117r11c8v2.3.jpg	 l	 2.095	 GoodTrial	 allStim	 ra
49	 1	 1	 left	 LineStimuli//allStim/stimNo101r5c5v4.3.jpg	 l	 2.059	 GoodTrial	 allStim	 ra
50	 1	 0	 x	 LineStimuli//allStim/stimNo140r0c0v4.3.jpg	 r	 3.691	 GoodTrial	 allStim	 ra
1	 2	 1	 right	 LineStimuli//allStim/stimNo88r9c14v3.3.jpg	 l	 1.604	 GoodTrial	 allStim	 ra
2	 2	 0	 x	 LineStimuli//allStim/stimNo160r0c0v3.3.jpg	 r	 3.573	 GoodTrial	 allStim	 ra
3	 2	 1	 right	 LineStimuli//allStim/stimNo118r5c16v2.8.jpg	 l	 2.131	 GoodTrial	 allStim	 ra
4	 2	 0	 x	 LineStimuli//allStim/stimNo142r0c0v2.3.jpg	 r	 2.730	 GoodTrial	 allStim	 ra
5	 2	 0	 x	 LineStimuli//allStim/stimNo126r0c0v1.8.jpg	 r	 3.294	 GoodTrial	 allStim	 ra
6	 2	 1	 left	 LineStimuli//allStim/stimNo86r15c6v2.8.jpg	 l	 1.792	 GoodTrial	 allStim	 ra
7	 2	 1	 left	 LineStimuli//allStim/stimNo119r15c7v3.3.jpg	 l	 1.694	 GoodTrial	 allStim	 ra
8	 2	 0	 x	 LineStimuli//allStim/stimNo126r0c0v4.3.jpg	 r	 2.723	 GoodTrial	 allStim	 ra
9	 2	 1	 left	 LineStimuli//allStim/stimNo90r10c4v4.3.jpg	 l	 1.681	 GoodTrial	 allStim	 ra
10	 2	 1	 left	 LineStimuli//allStim/stimNo105r6c5v1.8.jpg	 l	 2.866	 GoodTrial	 allStim	 ra
11	 2	 0	 x	 LineStimuli//allStim/stimNo159r0c0v2.3.jpg	 r	 3.746	 GoodTrial	 allStim	 ra
12	 2	 1	 left	 LineStimuli//allStim/stimNo104r2c4v2.3.jpg	 r	 3.485	 GoodTrial	 allStim	 ra
13	 2	 1	 left	 LineStimuli//allStim/stimNo106r9c9v2.3.jpg	 l	 1.711	 GoodTrial	 allStim	 ra
14	 2	 1	 right	 LineStimuli//allStim/stimNo120r8c14v3.3.jpg	 l	 2.326	 GoodTrial	 allStim	 ra
15	 2	 1	 right	 LineStimuli//allStim/stimNo82r9c21v3.8.jpg	 l	 2.997	 GoodTrial	 allStim	 ra
16	 2	 1	 left	 LineStimuli//allStim/stimNo88r15c2v2.3.jpg	 l	 3.266	 GoodTrial	 allStim	 ra
17	 2	 1	 right	 LineStimuli//allStim/stimNo106r13c20v2.8.jpg	 l	 1.991	 GoodTrial	 allStim	 ra
18	 2	 0	 x	 LineStimuli//allStim/stimNo157r0c0v2.3.jpg	 r	 6.339	 GoodTrial	 allStim	 ra
19	 2	 1	 right	 LineStimuli//allStim/stimNo92r14c21v2.8.jpg	 l	 1.842	 GoodTrial	 allStim	 ra
20	 2	 1	 right	 LineStimuli//allStim/stimNo92r10c17v2.3.jpg	 l	 1.796	 GoodTrial	 allStim	 ra
21	 2	 0	 x	 LineStimuli//allStim/stimNo126r0c0v1.5.jpg	 r	 9.411	 GoodTrial	 allStim	 ra
22	 2	 0	 x	 LineStimuli//allStim/stimNo147r0c0v1.8.jpg	 r	 4.371	 GoodTrial	 allStim	 ra
23	 2	 0	 x	 LineStimuli//allStim/stimNo137r0c0v3.8.jpg	 r	 3.130	 GoodTrial	 allStim	 ra
24	 2	 1	 right	 LineStimuli//allStim/stimNo109r2c17v2.3.jpg	 r	 3.944	 GoodTrial	 allStim	 ra
25	 2	 1	 left	 LineStimuli//allStim/stimNo97r11c4v2.8.jpg	 l	 1.786	 GoodTrial	 allStim	 ra
26	 2	 1	 right	 LineStimuli//allStim/stimNo112r6c15v1.8.jpg	 l	 2.487	 GoodTrial	 allStim	 ra
27	 2	 0	 x	 LineStimuli//allStim/stimNo151r0c0v2.3.jpg	 r	 5.669	 GoodTrial	 allStim	 ra
28	 2	 1	 right	 LineStimuli//allStim/stimNo117r10c21v4.3.jpg	 l	 1.632	 GoodTrial	 allStim	 ra
29	 2	 0	 x	 LineStimuli//allStim/stimNo135r0c0v4.3.jpg	 r	 2.585	 GoodTrial	 allStim	 ra
30	 2	 1	 right	 LineStimuli//allStim/stimNo115r14c18v1.5.jpg	 r	 8.446	 GoodTrial	 allStim	 ra
31	 2	 0	 x	 LineStimuli//allStim/stimNo122r0c0v2.8.jpg	 r	 4.332	 GoodTrial	 allStim	 ra
32	 2	 0	 x	 LineStimuli//allStim/stimNo131r0c0v1.8.jpg	 r	 3.730	 GoodTrial	 allStim	 ra
33	 2	 1	 left	 LineStimuli//allStim/stimNo109r15c7v3.3.jpg	 l	 2.085	 GoodTrial	 allStim	 ra
34	 2	 0	 x	 LineStimuli//allStim/stimNo154r0c0v4.3.jpg	 r	 3.318	 GoodTrial	 allStim	 ra
35	 2	 1	 left	 LineStimuli//allStim/stimNo96r6c9v2.8.jpg	 l	 2.024	 GoodTrial	 allStim	 ra
36	 2	 0	 x	 LineStimuli//allStim/stimNo138r0c0v4.3.jpg	 r	 2.159	 GoodTrial	 allStim	 ra
37	 2	 0	 x	 LineStimuli//allStim/stimNo123r0c0v3.3.jpg	 r	 4.704	 GoodTrial	 allStim	 ra
38	 2	 1	 left	 LineStimuli//allStim/stimNo99r10c3v1.5.jpg	 l	 2.065	 GoodTrial	 allStim	 ra
39	 2	 1	 left	 LineStimuli//allStim/stimNo117r11c8v2.3.jpg	 l	 2.034	 GoodTrial	 allStim	 ra
40	 2	 0	 x	 LineStimuli//allStim/stimNo143r0c0v2.8.jpg	 r	 4.083	 GoodTrial	 allStim	 ra
41	 2	 1	 left	 LineStimuli//allStim/stimNo110r6c7v4.3.jpg	 l	 1.608	 GoodTrial	 allStim	 ra
42	 2	 1	 right	 LineStimuli//allStim/stimNo107r2c17v3.3.jpg	 l	 2.200	 GoodTrial	 allStim	 ra
43	 2	 1	 right	 LineStimuli//allStim/stimNo118r11c13v4.3.jpg	 l	 1.567	 GoodTrial	 allStim	 ra
44	 2	 0	 x	 LineStimuli//allStim/stimNo160r0c0v2.3.jpg	 r	 6.133	 GoodTrial	 allStim	 ra
45	 2	 0	 x	 LineStimuli//allStim/stimNo146r0c0v1.5.jpg	 r	 6.123	 GoodTrial	 allStim	 ra
46	 2	 1	 left	 LineStimuli//allStim/stimNo118r4c8v3.8.jpg	 l	 1.751	 GoodTrial	 allStim	 ra
47	 2	 1	 left	 LineStimuli//allStim/stimNo93r8c2v3.8.jpg	 l	 2.057	 GoodTrial	 allStim	 ra
48	 2	 0	 x	 LineStimuli//allStim/stimNo142r0c0v1.5.jpg	 r	 5.848	 GoodTrial	 allStim	 ra
49	 2	 1	 left	 LineStimuli//allStim/stimNo84r3c9v2.8.jpg	 l	 1.888	 GoodTrial	 allStim	 ra
50	 2	 1	 left	 LineStimuli//allStim/stimNo119r9c8v3.8.jpg	 l	 1.508	 GoodTrial	 allStim	 ra
1	 3	 0	 x	 LineStimuli//allStim/stimNo143r0c0v3.8.jpg	 r	 2.880	 GoodTrial	 allStim	 ra
2	 3	 1	 right	 LineStimuli//allStim/stimNo109r2c17v2.3.jpg	 l	 3.125	 GoodTrial	 allStim	 ra
3	 3	 0	 x	 LineStimuli//allStim/stimNo126r0c0v4.3.jpg	 r	 2.345	 GoodTrial	 allStim	 ra
4	 3	 1	 right	 LineStimuli//allStim/stimNo101r12c17v3.8.jpg	 r	 0.512	 EARLY_RESPONSE	 allStim	 ra
5	 3	 0	 x	 LineStimuli//allStim/stimNo127r0c0v1.5.jpg	 r	 4.842	 GoodTrial	 allStim	 ra
6	 3	 1	 right	 LineStimuli//allStim/stimNo85r3c13v3.8.jpg	 l	 1.683	 GoodTrial	 allStim	 ra
7	 3	 0	 x	 LineStimuli//allStim/stimNo156r0c0v3.8.jpg	 r	 2.971	 GoodTrial	 allStim	 ra
8	 3	 1	 left	 LineStimuli//allStim/stimNo93r8c2v3.8.jpg	 l	 1.875	 GoodTrial	 allStim	 ra
9	 3	 0	 x	 LineStimuli//allStim/stimNo132r0c0v3.8.jpg	 r	 2.342	 GoodTrial	 allStim	 ra
10	 3	 1	 left	 LineStimuli//allStim/stimNo117r2c5v3.3.jpg	 l	 2.638	 GoodTrial	 allStim	 ra
11	 3	 0	 x	 LineStimuli//allStim/stimNo122r0c0v1.5.jpg	 r	 5.454	 GoodTrial	 allStim	 ra
12	 3	 1	 left	 LineStimuli//allStim/stimNo110r4c7v1.8.jpg	 r	 2.161	 GoodTrial	 allStim	 ra
13	 3	 1	 right	 LineStimuli//allStim/stimNo108r13c15v1.5.jpg	 r	 4.540	 GoodTrial	 allStim	 ra
14	 3	 1	 right	 LineStimuli//allStim/stimNo111r15c20v3.8.jpg	 l	 1.949	 GoodTrial	 allStim	 ra
15	 3	 1	 right	 LineStimuli//allStim/stimNo118r4c17v2.3.jpg	 l	 2.606	 GoodTrial	 allStim	 ra
16	 3	 0	 x	 LineStimuli//allStim/stimNo149r0c0v2.3.jpg	 r	 3.795	 GoodTrial	 allStim	 ra
17	 3	 0	 x	 LineStimuli//allStim/stimNo150r0c0v1.5.jpg	 r	 4.244	 GoodTrial	 allStim	 ra
18	 3	 1	 right	 LineStimuli//allStim/stimNo81r3c21v3.8.jpg	 r	 1.894	 GoodTrial	 allStim	 ra
19	 3	 0	 x	 LineStimuli//allStim/stimNo128r0c0v1.8.jpg	 r	 4.628	 GoodTrial	 allStim	 ra
20	 3	 1	 left	 LineStimuli//allStim/stimNo93r3c5v3.3.jpg	 l	 2.070	 GoodTrial	 allStim	 ra
21	 3	 1	 left	 LineStimuli//allStim/stimNo107r5c4v1.8.jpg	 l	 2.182	 GoodTrial	 allStim	 ra
22	 3	 1	 right	 LineStimuli//allStim/stimNo82r11c20v3.3.jpg	 l	 1.804	 GoodTrial	 allStim	 ra
23	 3	 0	 x	 LineStimuli//allStim/stimNo141r0c0v2.8.jpg	 r	 3.128	 GoodTrial	 allStim	 ra
24	 3	 1	 left	 LineStimuli//allStim/stimNo104r4c4v3.3.jpg	 l	 1.673	 GoodTrial	 allStim	 ra
25	 3	 1	 right	 LineStimuli//allStim/stimNo87r15c13v3.3.jpg	 l	 1.976	 GoodTrial	 allStim	 ra
26	 3	 0	 x	 LineStimuli//allStim/stimNo143r0c0v2.3.jpg	 r	 2.711	 GoodTrial	 allStim	 ra
27	 3	 0	 x	 LineStimuli//allStim/stimNo123r0c0v3.3.jpg	 r	 2.320	 GoodTrial	 allStim	 ra
28	 3	 1	 right	 LineStimuli//allStim/stimNo96r4c19v4.3.jpg	 l	 1.634	 GoodTrial	 allStim	 ra
29	 3	 0	 x	 LineStimuli//allStim/stimNo148r0c0v3.8.jpg	 r	 1.984	 GoodTrial	 allStim	 ra
30	 3	 1	 right	 LineStimuli//allStim/stimNo114r11c21v3.3.jpg	 l	 1.819	 GoodTrial	 allStim	 ra
31	 3	 0	 x	 LineStimuli//allStim/stimNo151r0c0v3.8.jpg	 r	 2.451	 GoodTrial	 allStim	 ra
32	 3	 0	 x	 LineStimuli//allStim/stimNo143r0c0v2.8.jpg	 r	 2.006	 GoodTrial	 allStim	 ra
33	 3	 1	 left	 LineStimuli//allStim/stimNo116r4c7v2.8.jpg	 r	 2.512	 GoodTrial	 allStim	 ra
34	 3	 1	 left	 LineStimuli//allStim/stimNo94r10c6v1.5.jpg	 r	 4.945	 GoodTrial	 allStim	 ra
35	 3	 0	 x	 LineStimuli//allStim/stimNo144r0c0v3.8.jpg	 r	 2.579	 GoodTrial	 allStim	 ra
36	 3	 1	 right	 LineStimuli//allStim/stimNo81r10c14v4.3.jpg	 l	 1.609	 GoodTrial	 allStim	 ra
37	 3	 0	 x	 LineStimuli//allStim/stimNo142r0c0v2.8.jpg	 r	 1.910	 GoodTrial	 allStim	 ra
38	 3	 1	 right	 LineStimuli//allStim/stimNo90r14c21v2.3.jpg	 l	 1.942	 GoodTrial	 allStim	 ra
39	 3	 0	 x	 LineStimuli//allStim/stimNo153r0c0v4.3.jpg	 r	 2.333	 GoodTrial	 allStim	 ra
40	 3	 0	 x	 LineStimuli//allStim/stimNo146r0c0v1.5.jpg	 r	 2.311	 GoodTrial	 allStim	 ra
41	 3	 1	 left	 LineStimuli//allStim/stimNo105r2c6v3.8.jpg	 l	 2.034	 GoodTrial	 allStim	 ra
42	 3	 0	 x	 LineStimuli//allStim/stimNo149r0c0v1.5.jpg	 l	 3.358	 GoodTrial	 allStim	 ra
43	 3	 0	 x	 LineStimuli//allStim/stimNo129r0c0v3.8.jpg	 r	 2.710	 GoodTrial	 allStim	 ra
44	 3	 0	 x	 LineStimuli//allStim/stimNo127r0c0v2.8.jpg	 r	 2.611	 GoodTrial	 allStim	 ra
45	 3	 1	 left	 LineStimuli//allStim/stimNo118r4c8v3.8.jpg	 l	 1.600	 GoodTrial	 allStim	 ra
46	 3	 1	 left	 LineStimuli//allStim/stimNo115r3c4v3.3.jpg	 l	 1.732	 GoodTrial	 allStim	 ra
47	 3	 1	 right	 LineStimuli//allStim/stimNo112r13c17v2.8.jpg	 l	 1.807	 GoodTrial	 allStim	 ra
48	 3	 1	 right	 LineStimuli//allStim/stimNo86r6c16v1.5.jpg	 r	 2.355	 GoodTrial	 allStim	 ra
49	 3	 1	 left	 LineStimuli//allStim/stimNo116r7c3v3.8.jpg	 l	 1.678	 GoodTrial	 allStim	 ra
50	 3	 1	 left	 LineStimuli//allStim/stimNo119r15c7v3.3.jpg	 l	 1.830	 GoodTrial	 allStim	 ra
1	 4	 1	 right	 LineStimuli//allStim/stimNo111r15c20v3.8.jpg	 l	 1.918	 GoodTrial	 allStim	 ra
2	 4	 0	 x	 LineStimuli//allStim/stimNo123r0c0v3.3.jpg	 r	 1.973	 GoodTrial	 allStim	 ra
3	 4	 0	 x	 LineStimuli//allStim/stimNo159r0c0v2.3.jpg	 r	 1.746	 GoodTrial	 allStim	 ra
4	 4	 0	 x	 LineStimuli//allStim/stimNo153r0c0v2.3.jpg	 r	 1.786	 GoodTrial	 allStim	 ra
5	 4	 1	 left	 LineStimuli//allStim/stimNo83r4c2v4.3.jpg	 l	 1.883	 GoodTrial	 allStim	 ra
6	 4	 0	 x	 LineStimuli//allStim/stimNo131r0c0v2.3.jpg	 r	 1.815	 GoodTrial	 allStim	 ra
7	 4	 0	 x	 LineStimuli//allStim/stimNo134r0c0v3.8.jpg	 r	 1.810	 GoodTrial	 allStim	 ra
8	 4	 1	 right	 LineStimuli//allStim/stimNo91r12c16v3.3.jpg	 l	 1.688	 GoodTrial	 allStim	 ra
9	 4	 0	 x	 LineStimuli//allStim/stimNo128r0c0v3.3.jpg	 r	 2.207	 GoodTrial	 allStim	 ra
10	 4	 1	 left	 LineStimuli//allStim/stimNo116r2c2v2.3.jpg	 r	 1.767	 GoodTrial	 allStim	 ra
11	 4	 0	 x	 LineStimuli//allStim/stimNo153r0c0v4.3.jpg	 r	 2.166	 GoodTrial	 allStim	 ra
12	 4	 0	 x	 LineStimuli//allStim/stimNo144r0c0v1.5.jpg	 r	 2.671	 GoodTrial	 allStim	 ra
13	 4	 1	 right	 LineStimuli//allStim/stimNo114r8c19v2.8.jpg	 l	 1.974	 GoodTrial	 allStim	 ra
14	 4	 0	 x	 LineStimuli//allStim/stimNo132r0c0v1.5.jpg	 r	 3.584	 GoodTrial	 allStim	 ra
15	 4	 1	 left	 LineStimuli//allStim/stimNo86r7c3v4.3.jpg	 l	 1.766	 GoodTrial	 allStim	 ra
16	 4	 1	 left	 LineStimuli//allStim/stimNo100r8c3v4.3.jpg	 l	 1.788	 GoodTrial	 allStim	 ra
17	 4	 1	 left	 LineStimuli//allStim/stimNo115r5c9v1.8.jpg	 r	 1.884	 GoodTrial	 allStim	 ra
18	 4	 0	 x	 LineStimuli//allStim/stimNo155r0c0v1.5.jpg	 r	 5.134	 GoodTrial	 allStim	 ra
19	 4	 0	 x	 LineStimuli//allStim/stimNo127r0c0v3.3.jpg	 r	 2.450	 GoodTrial	 allStim	 ra
20	 4	 0	 x	 LineStimuli//allStim/stimNo159r0c0v3.8.jpg	 r	 1.800	 GoodTrial	 allStim	 ra
21	 4	 0	 x	 LineStimuli//allStim/stimNo128r0c0v4.3.jpg	 r	 1.895	 GoodTrial	 allStim	 ra
22	 4	 0	 x	 LineStimuli//allStim/stimNo147r0c0v2.8.jpg	 r	 2.424	 GoodTrial	 allStim	 ra
23	 4	 0	 x	 LineStimuli//allStim/stimNo155r0c0v1.8.jpg	 r	 2.410	 GoodTrial	 allStim	 ra
24	 4	 1	 left	 LineStimuli//allStim/stimNo110r6c7v4.3.jpg	 l	 1.776	 GoodTrial	 allStim	 ra
25	 4	 0	 x	 LineStimuli//allStim/stimNo158r0c0v2.3.jpg	 r	 2.507	 GoodTrial	 allStim	 ra
26	 4	 0	 x	 LineStimuli//allStim/stimNo131r0c0v3.8.jpg	 r	 1.976	 GoodTrial	 allStim	 ra
27	 4	 0	 x	 LineStimuli//allStim/stimNo160r0c0v3.3.jpg	 r	 1.656	 GoodTrial	 allStim	 ra
28	 4	 1	 left	 LineStimuli//allStim/stimNo97r11c4v2.8.jpg	 l	 1.817	 GoodTrial	 allStim	 ra
29	 4	 0	 x	 LineStimuli//allStim/stimNo151r0c0v2.8.jpg	 r	 1.888	 GoodTrial	 allStim	 ra
30	 4	 0	 x	 LineStimuli//allStim/stimNo133r0c0v3.3.jpg	 r	 1.671	 GoodTrial	 allStim	 ra
31	 4	 1	 right	 LineStimuli//allStim/stimNo84r11c21v1.8.jpg	 l	 2.792	 GoodTrial	 allStim	 ra
32	 4	 1	 left	 LineStimuli//allStim/stimNo107r5c6v2.8.jpg	 l	 2.016	 GoodTrial	 allStim	 ra
33	 4	 1	 left	 LineStimuli//allStim/stimNo105r2c6v3.8.jpg	 l	 1.664	 GoodTrial	 allStim	 ra
34	 4	 1	 left	 LineStimuli//allStim/stimNo101r5c5v4.3.jpg	 l	 1.624	 GoodTrial	 allStim	 ra
35	 4	 1	 left	 LineStimuli//allStim/stimNo105r6c5v1.8.jpg	 l	 1.828	 GoodTrial	 allStim	 ra
36	 4	 0	 x	 LineStimuli//allStim/stimNo154r0c0v1.8.jpg	 r	 2.399	 GoodTrial	 allStim	 ra
37	 4	 1	 left	 LineStimuli//allStim/stimNo88r15c9v1.8.jpg	 l	 2.592	 GoodTrial	 allStim	 ra
38	 4	 0	 x	 LineStimuli//allStim/stimNo122r0c0v1.5.jpg	 r	 2.391	 GoodTrial	 allStim	 ra
39	 4	 1	 left	 LineStimuli//allStim/stimNo102r7c6v1.5.jpg	 r	 4.469	 GoodTrial	 allStim	 ra
40	 4	 1	 right	 LineStimuli//allStim/stimNo115r14c18v1.5.jpg	 r	 6.277	 GoodTrial	 allStim	 ra
41	 4	 0	 x	 LineStimuli//allStim/stimNo143r0c0v1.8.jpg	 l	 4.632	 GoodTrial	 allStim	 ra
42	 4	 1	 left	 LineStimuli//allStim/stimNo88r15c2v2.3.jpg	 r	 7.905	 GoodTrial	 allStim	 ra
43	 4	 0	 x	 LineStimuli//allStim/stimNo129r0c0v2.8.jpg	 r	 3.610	 GoodTrial	 allStim	 ra
44	 4	 1	 left	 LineStimuli//allStim/stimNo119r8c5v2.8.jpg	 l	 1.844	 GoodTrial	 allStim	 ra
45	 4	 1	 right	 LineStimuli//allStim/stimNo120r8c14v3.3.jpg	 l	 1.735	 GoodTrial	 allStim	 ra
46	 4	 1	 left	 LineStimuli//allStim/stimNo116r4c7v1.8.jpg	 r	 4.059	 GoodTrial	 allStim	 ra
47	 4	 1	 left	 LineStimuli//allStim/stimNo89r11c6v1.8.jpg	 l	 1.822	 GoodTrial	 allStim	 ra
48	 4	 0	 x	 LineStimuli//allStim/stimNo160r0c0v3.8.jpg	 r	 2.249	 GoodTrial	 allStim	 ra
49	 4	 0	 x	 LineStimuli//allStim/stimNo145r0c0v2.3.jpg	 r	 4.203	 GoodTrial	 allStim	 ra
50	 4	 1	 right	 LineStimuli//allStim/stimNo84r15c14v2.3.jpg	 l	 2.380	 GoodTrial	 allStim	 ra
1	 5	 1	 right	 LineStimuli//allStim/stimNo84r15c20v4.3.jpg	 l	 1.768	 GoodTrial	 allStim	 ra
2	 5	 1	 left	 LineStimuli//allStim/stimNo117r7c8v1.5.jpg	 l	 2.775	 GoodTrial	 allStim	 ra
3	 5	 0	 x	 LineStimuli//allStim/stimNo159r0c0v1.8.jpg	 r	 3.955	 GoodTrial	 allStim	 ra
4	 5	 0	 x	 LineStimuli//allStim/stimNo148r0c0v3.8.jpg	 r	 2.533	 GoodTrial	 allStim	 ra
5	 5	 0	 x	 LineStimuli//allStim/stimNo155r0c0v4.3.jpg	 r	 2.375	 GoodTrial	 allStim	 ra
6	 5	 1	 left	 LineStimuli//allStim/stimNo95r13c9v2.3.jpg	 l	 2.067	 GoodTrial	 allStim	 ra
7	 5	 1	 right	 LineStimuli//allStim/stimNo116r10c14v3.3.jpg	 l	 1.730	 GoodTrial	 allStim	 ra
8	 5	 1	 right	 LineStimuli//allStim/stimNo97r6c13v3.3.jpg	 l	 2.146	 GoodTrial	 allStim	 ra
9	 5	 1	 right	 LineStimuli//allStim/stimNo96r8c18v3.3.jpg	 l	 1.666	 GoodTrial	 allStim	 ra
10	 5	 1	 left	 LineStimuli//allStim/stimNo113r6c7v1.8.jpg	 l	 1.964	 GoodTrial	 allStim	 ra
11	 5	 0	 x	 LineStimuli//allStim/stimNo125r0c0v4.3.jpg	 r	 2.318	 GoodTrial	 allStim	 ra
12	 5	 1	 right	 LineStimuli//allStim/stimNo87r6c13v3.8.jpg	 l	 1.705	 GoodTrial	 allStim	 ra
13	 5	 1	 left	 LineStimuli//allStim/stimNo113r14c9v3.8.jpg	 l	 2.103	 GoodTrial	 allStim	 ra
14	 5	 1	 left	 LineStimuli//allStim/stimNo97r11c4v2.8.jpg	 l	 1.815	 GoodTrial	 allStim	 ra
15	 5	 1	 left	 LineStimuli//allStim/stimNo100r8c6v2.3.jpg	 l	 1.810	 GoodTrial	 allStim	 ra
16	 5	 1	 right	 LineStimuli//allStim/stimNo99r2c13v3.8.jpg	 l	 1.994	 GoodTrial	 allStim	 ra
17	 5	 0	 x	 LineStimuli//allStim/stimNo155r0c0v2.8.jpg	 r	 2.886	 GoodTrial	 allStim	 ra
18	 5	 1	 left	 LineStimuli//allStim/stimNo114r4c4v1.5.jpg	 r	 2.238	 GoodTrial	 allStim	 ra
19	 5	 0	 x	 LineStimuli//allStim/stimNo142r0c0v2.8.jpg	 r	 3.168	 GoodTrial	 allStim	 ra
20	 5	 0	 x	 LineStimuli//allStim/stimNo125r0c0v2.3.jpg	 r	 3.332	 GoodTrial	 allStim	 ra
21	 5	 1	 right	 LineStimuli//allStim/stimNo88r10c17v3.8.jpg	 l	 1.698	 GoodTrial	 allStim	 ra
22	 5	 0	 x	 LineStimuli//allStim/stimNo148r0c0v1.8.jpg	 r	 3.685	 GoodTrial	 allStim	 ra
23	 5	 0	 x	 LineStimuli//allStim/stimNo154r0c0v3.3.jpg	 r	 2.331	 GoodTrial	 allStim	 ra
24	 5	 0	 x	 LineStimuli//allStim/stimNo158r0c0v2.8.jpg	 r	 2.001	 GoodTrial	 allStim	 ra
25	 5	 1	 right	 LineStimuli//allStim/stimNo103r13c17v1.5.jpg	 r	 4.361	 GoodTrial	 allStim	 ra
26	 5	 1	 left	 LineStimuli//allStim/stimNo87r11c8v2.8.jpg	 l	 2.761	 GoodTrial	 allStim	 ra
27	 5	 1	 right	 LineStimuli//allStim/stimNo101r8c14v2.3.jpg	 l	 1.976	 GoodTrial	 allStim	 ra
28	 5	 0	 x	 LineStimuli//allStim/stimNo144r0c0v2.8.jpg	 r	 2.822	 GoodTrial	 allStim	 ra
29	 5	 1	 left	 LineStimuli//allStim/stimNo97r15c6v1.5.jpg	 r	 5.382	 GoodTrial	 allStim	 ra
30	 5	 1	 left	 LineStimuli//allStim/stimNo108r13c2v3.3.jpg	 l	 2.003	 GoodTrial	 allStim	 ra
31	 5	 1	 left	 LineStimuli//allStim/stimNo102r3c2v2.8.jpg	 r	 6.275	 GoodTrial	 allStim	 ra
32	 5	 1	 left	 LineStimuli//allStim/stimNo85r13c2v1.8.jpg	 l	 2.657	 GoodTrial	 allStim	 ra
33	 5	 1	 left	 LineStimuli//allStim/stimNo99r10c3v1.5.jpg	 r	 8.497	 GoodTrial	 allStim	 ra
34	 5	 0	 x	 LineStimuli//allStim/stimNo151r0c0v2.3.jpg	 r	 4.985	 GoodTrial	 allStim	 ra
35	 5	 1	 right	 LineStimuli//allStim/stimNo92r6c21v3.8.jpg	 l	 2.236	 GoodTrial	 allStim	 ra
36	 5	 0	 x	 LineStimuli//allStim/stimNo127r0c0v3.3.jpg	 r	 3.148	 GoodTrial	 allStim	 ra
37	 5	 1	 right	 LineStimuli//allStim/stimNo83r6c13v1.8.jpg	 l	 2.188	 GoodTrial	 allStim	 ra
38	 5	 1	 right	 LineStimuli//allStim/stimNo109r2c17v2.3.jpg	 l	 1.945	 GoodTrial	 allStim	 ra
39	 5	 0	 x	 LineStimuli//allStim/stimNo125r0c0v3.3.jpg	 r	 2.475	 GoodTrial	 allStim	 ra
40	 5	 0	 x	 LineStimuli//allStim/stimNo143r0c0v3.8.jpg	 r	 1.883	 GoodTrial	 allStim	 ra
41	 5	 0	 x	 LineStimuli//allStim/stimNo147r0c0v3.8.jpg	 r	 1.778	 GoodTrial	 allStim	 ra
42	 5	 1	 right	 LineStimuli//allStim/stimNo110r15c19v2.3.jpg	 l	 2.888	 GoodTrial	 allStim	 ra
43	 5	 0	 x	 LineStimuli//allStim/stimNo149r0c0v3.3.jpg	 r	 2.917	 GoodTrial	 allStim	 ra
44	 5	 1	 left	 LineStimuli//allStim/stimNo86r7c7v3.8.jpg	 l	 1.907	 GoodTrial	 allStim	 ra
45	 5	 0	 x	 LineStimuli//allStim/stimNo126r0c0v1.5.jpg	 r	 7.472	 GoodTrial	 allStim	 ra
46	 5	 0	 x	 LineStimuli//allStim/stimNo134r0c0v1.5.jpg	 r	 5.960	 GoodTrial	 allStim	 ra
47	 5	 0	 x	 LineStimuli//allStim/stimNo159r0c0v4.3.jpg	 r	 2.275	 GoodTrial	 allStim	 ra
48	 5	 0	 x	 LineStimuli//allStim/stimNo143r0c0v2.3.jpg	 r	 4.248	 GoodTrial	 allStim	 ra
49	 5	 0	 x	 LineStimuli//allStim/stimNo150r0c0v4.3.jpg	 r	 2.140	 GoodTrial	 allStim	 ra
50	 5	 0	 x	 LineStimuli//allStim/stimNo158r0c0v2.3.jpg	 r	 3.903	 GoodTrial	 allStim	 ra
1	 6	 1	 right	 LineStimuli//allStim/stimNo120r8c20v2.8.jpg	 l	 2.176	 GoodTrial	 allStim	 ra
2	 6	 1	 left	 LineStimuli//allStim/stimNo105r5c4v2.8.jpg	 l	 1.918	 GoodTrial	 allStim	 ra
3	 6	 0	 x	 LineStimuli//allStim/stimNo125r0c0v1.8.jpg	 r	 2.079	 GoodTrial	 allStim	 ra
4	 6	 1	 left	 LineStimuli//allStim/stimNo96r13c2v1.8.jpg	 r	 2.362	 GoodTrial	 allStim	 ra
5	 6	 0	 x	 LineStimuli//allStim/stimNo151r0c0v3.8.jpg	 r	 2.142	 GoodTrial	 allStim	 ra
6	 6	 0	 x	 LineStimuli//allStim/stimNo129r0c0v3.3.jpg	 r	 3.163	 GoodTrial	 allStim	 ra
7	 6	 0	 x	 LineStimuli//allStim/stimNo143r0c0v2.3.jpg	 r	 2.459	 GoodTrial	 allStim	 ra
8	 6	 1	 left	 LineStimuli//allStim/stimNo108r13c2v3.3.jpg	 l	 1.592	 GoodTrial	 allStim	 ra
9	 6	 0	 x	 LineStimuli//allStim/stimNo147r0c0v2.8.jpg	 r	 1.810	 GoodTrial	 allStim	 ra
10	 6	 0	 x	 LineStimuli//allStim/stimNo151r0c0v3.3.jpg	 r	 1.736	 GoodTrial	 allStim	 ra
11	 6	 1	 left	 LineStimuli//allStim/stimNo100r8c6v2.3.jpg	 l	 1.871	 GoodTrial	 allStim	 ra
12	 6	 0	 x	 LineStimuli//allStim/stimNo121r0c0v3.3.jpg	 r	 2.614	 GoodTrial	 allStim	 ra
13	 6	 0	 x	 LineStimuli//allStim/stimNo160r0c0v1.5.jpg	 r	 4.987	 GoodTrial	 allStim	 ra
14	 6	 0	 x	 LineStimuli//allStim/stimNo149r0c0v1.5.jpg	 r	 2.314	 GoodTrial	 allStim	 ra
15	 6	 1	 right	 LineStimuli//allStim/stimNo91r12c16v3.3.jpg	 l	 1.730	 GoodTrial	 allStim	 ra
16	 6	 1	 left	 LineStimuli//allStim/stimNo99r10c3v1.5.jpg	 r	 2.596	 GoodTrial	 allStim	 ra
17	 6	 1	 left	 LineStimuli//allStim/stimNo111r15c7v3.3.jpg	 l	 2.012	 GoodTrial	 allStim	 ra
18	 6	 1	 right	 LineStimuli//allStim/stimNo119r12c17v4.3.jpg	 l	 1.680	 GoodTrial	 allStim	 ra
19	 6	 0	 x	 LineStimuli//allStim/stimNo124r0c0v1.8.jpg	 r	 3.028	 GoodTrial	 allStim	 ra
20	 6	 1	 right	 LineStimuli//allStim/stimNo94r6c17v3.8.jpg	 l	 1.704	 GoodTrial	 allStim	 ra
21	 6	 1	 right	 LineStimuli//allStim/stimNo97r6c21v4.3.jpg	 l	 2.058	 GoodTrial	 allStim	 ra
22	 6	 0	 x	 LineStimuli//allStim/stimNo137r0c0v1.5.jpg	 r	 3.840	 GoodTrial	 allStim	 ra
23	 6	 1	 left	 LineStimuli//allStim/stimNo100r13c6v3.8.jpg	 l	 1.563	 GoodTrial	 allStim	 ra
24	 6	 0	 x	 LineStimuli//allStim/stimNo149r0c0v1.8.jpg	 r	 4.832	 GoodTrial	 allStim	 ra
25	 6	 0	 x	 LineStimuli//allStim/stimNo152r0c0v2.8.jpg	 r	 2.555	 GoodTrial	 allStim	 ra
26	 6	 1	 left	 LineStimuli//allStim/stimNo86r7c7v3.8.jpg	 l	 1.638	 GoodTrial	 allStim	 ra
27	 6	 0	 x	 LineStimuli//allStim/stimNo133r0c0v4.3.jpg	 r	 2.078	 GoodTrial	 allStim	 ra
28	 6	 1	 left	 LineStimuli//allStim/stimNo98r2c9v3.8.jpg	 r	 2.304	 GoodTrial	 allStim	 ra
29	 6	 0	 x	 LineStimuli//allStim/stimNo145r0c0v1.5.jpg	 r	 3.593	 GoodTrial	 allStim	 ra
30	 6	 0	 x	 LineStimuli//allStim/stimNo124r0c0v3.3.jpg	 r	 2.270	 GoodTrial	 allStim	 ra
31	 6	 0	 x	 LineStimuli//allStim/stimNo124r0c0v1.5.jpg	 r	 4.938	 GoodTrial	 allStim	 ra
32	 6	 0	 x	 LineStimuli//allStim/stimNo133r0c0v3.8.jpg	 r	 2.845	 GoodTrial	 allStim	 ra
33	 6	 1	 right	 LineStimuli//allStim/stimNo87r13c19v2.3.jpg	 l	 2.123	 GoodTrial	 allStim	 ra
34	 6	 1	 right	 LineStimuli//allStim/stimNo114r10c15v4.3.jpg	 l	 1.809	 GoodTrial	 allStim	 ra
35	 6	 1	 left	 LineStimuli//allStim/stimNo83r12c4v2.8.jpg	 l	 1.686	 GoodTrial	 allStim	 ra
36	 6	 1	 left	 LineStimuli//allStim/stimNo104r4c4v3.3.jpg	 l	 1.676	 GoodTrial	 allStim	 ra
37	 6	 0	 x	 LineStimuli//allStim/stimNo135r0c0v3.3.jpg	 r	 2.628	 GoodTrial	 allStim	 ra
38	 6	 1	 right	 LineStimuli//allStim/stimNo119r3c21v1.8.jpg	 r	 3.591	 GoodTrial	 allStim	 ra
39	 6	 0	 x	 LineStimuli//allStim/stimNo132r0c0v4.3.jpg	 r	 1.898	 GoodTrial	 allStim	 ra
40	 6	 0	 x	 LineStimuli//allStim/stimNo156r0c0v4.3.jpg	 r	 1.703	 GoodTrial	 allStim	 ra
41	 6	 1	 left	 LineStimuli//allStim/stimNo120r14c9v1.8.jpg	 r	 5.375	 GoodTrial	 allStim	 ra
42	 6	 1	 right	 LineStimuli//allStim/stimNo112r5c15v3.3.jpg	 l	 1.853	 GoodTrial	 allStim	 ra
43	 6	 0	 x	 LineStimuli//allStim/stimNo142r0c0v2.3.jpg	 r	 8.623	 GoodTrial	 allStim	 ra
44	 6	 0	 x	 LineStimuli//allStim/stimNo144r0c0v3.8.jpg	 r	 2.059	 GoodTrial	 allStim	 ra
45	 6	 1	 left	 LineStimuli//allStim/stimNo102r7c6v1.5.jpg	 r	 9.923	 GoodTrial	 allStim	 ra
46	 6	 1	 right	 LineStimuli//allStim/stimNo110r15c19v2.3.jpg	 l	 1.815	 GoodTrial	 allStim	 ra
47	 6	 0	 x	 LineStimuli//allStim/stimNo149r0c0v4.3.jpg	 r	 2.972	 GoodTrial	 allStim	 ra
48	 6	 1	 left	 LineStimuli//allStim/stimNo105r6c5v1.8.jpg	 l	 2.004	 GoodTrial	 allStim	 ra
49	 6	 0	 x	 LineStimuli//allStim/stimNo144r0c0v2.3.jpg	 r	 3.953	 GoodTrial	 allStim	 ra
50	 6	 1	 left	 LineStimuli//allStim/stimNo117r11c8v2.3.jpg	 l	 1.874	 GoodTrial	 allStim	 ra
1	 7	 1	 right	 LineStimuli//allStim/stimNo120r8c14v3.3.jpg	 l	 1.629	 GoodTrial	 allStim	 ra
2	 7	 0	 x	 LineStimuli//allStim/stimNo135r0c0v1.5.jpg	 r	 4.071	 GoodTrial	 allStim	 ra
3	 7	 0	 x	 LineStimuli//allStim/stimNo149r0c0v2.8.jpg	 r	 2.752	 GoodTrial	 allStim	 ra
4	 7	 0	 x	 LineStimuli//allStim/stimNo134r0c0v2.3.jpg	 r	 1.723	 GoodTrial	 allStim	 ra
5	 7	 1	 left	 LineStimuli//allStim/stimNo108r15c6v2.3.jpg	 l	 1.928	 GoodTrial	 allStim	 ra
6	 7	 1	 right	 LineStimuli//allStim/stimNo96r8c18v3.3.jpg	 l	 1.640	 GoodTrial	 allStim	 ra
7	 7	 1	 right	 LineStimuli//allStim/stimNo98r4c21v3.3.jpg	 l	 1.699	 GoodTrial	 allStim	 ra
8	 7	 0	 x	 LineStimuli//allStim/stimNo135r0c0v1.8.jpg	 r	 2.266	 GoodTrial	 allStim	 ra
9	 7	 0	 x	 LineStimuli//allStim/stimNo155r0c0v3.3.jpg	 r	 1.962	 GoodTrial	 allStim	 ra
10	 7	 1	 left	 LineStimuli//allStim/stimNo120r5c3v3.8.jpg	 l	 1.634	 GoodTrial	 allStim	 ra
11	 7	 1	 right	 LineStimuli//allStim/stimNo93r4c16v2.3.jpg	 l	 1.710	 GoodTrial	 allStim	 ra
12	 7	 0	 x	 LineStimuli//allStim/stimNo142r0c0v2.3.jpg	 r	 2.731	 GoodTrial	 allStim	 ra
13	 7	 1	 right	 LineStimuli//allStim/stimNo100r9c13v1.8.jpg	 l	 1.720	 GoodTrial	 allStim	 ra
14	 7	 0	 x	 LineStimuli//allStim/stimNo127r0c0v1.5.jpg	 r	 1.961	 GoodTrial	 allStim	 ra
15	 7	 0	 x	 LineStimuli//allStim/stimNo143r0c0v3.8.jpg	 r	 2.079	 GoodTrial	 allStim	 ra
16	 7	 0	 x	 LineStimuli//allStim/stimNo125r0c0v3.3.jpg	 r	 2.000	 GoodTrial	 allStim	 ra
17	 7	 1	 right	 LineStimuli//allStim/stimNo95r9c18v2.8.jpg	 l	 1.871	 GoodTrial	 allStim	 ra
18	 7	 0	 x	 LineStimuli//allStim/stimNo159r0c0v1.8.jpg	 r	 2.055	 GoodTrial	 allStim	 ra
19	 7	 1	 left	 LineStimuli//allStim/stimNo107r2c8v4.3.jpg	 l	 1.782	 GoodTrial	 allStim	 ra
20	 7	 0	 x	 LineStimuli//allStim/stimNo128r0c0v1.8.jpg	 r	 2.238	 GoodTrial	 allStim	 ra
21	 7	 0	 x	 LineStimuli//allStim/stimNo150r0c0v3.8.jpg	 r	 1.834	 GoodTrial	 allStim	 ra
22	 7	 1	 right	 LineStimuli//allStim/stimNo112r10c16v4.3.jpg	 l	 1.558	 GoodTrial	 allStim	 ra
23	 7	 1	 left	 LineStimuli//allStim/stimNo94r13c8v1.8.jpg	 l	 2.597	 GoodTrial	 allStim	 ra
24	 7	 0	 x	 LineStimuli//allStim/stimNo124r0c0v4.3.jpg	 r	 1.918	 GoodTrial	 allStim	 ra
25	 7	 1	 left	 LineStimuli//allStim/stimNo100r8c6v2.3.jpg	 l	 1.726	 GoodTrial	 allStim	 ra
26	 7	 0	 x	 LineStimuli//allStim/stimNo158r0c0v3.3.jpg	 r	 1.718	 GoodTrial	 allStim	 ra
27	 7	 0	 x	 LineStimuli//allStim/stimNo127r0c0v2.8.jpg	 r	 3.156	 GoodTrial	 allStim	 ra
28	 7	 0	 x	 LineStimuli//allStim/stimNo143r0c0v1.8.jpg	 r	 3.858	 GoodTrial	 allStim	 ra
29	 7	 1	 left	 LineStimuli//allStim/stimNo104r12c8v3.8.jpg	 l	 1.766	 GoodTrial	 allStim	 ra
30	 7	 1	 right	 LineStimuli//allStim/stimNo118r4c17v2.3.jpg	 l	 2.300	 GoodTrial	 allStim	 ra
31	 7	 0	 x	 LineStimuli//allStim/stimNo125r0c0v1.5.jpg	 r	 3.209	 GoodTrial	 allStim	 ra
32	 7	 0	 x	 LineStimuli//allStim/stimNo124r0c0v3.3.jpg	 r	 2.058	 GoodTrial	 allStim	 ra
33	 7	 0	 x	 LineStimuli//allStim/stimNo146r0c0v3.8.jpg	 r	 1.801	 GoodTrial	 allStim	 ra
34	 7	 0	 x	 LineStimuli//allStim/stimNo136r0c0v1.5.jpg	 r	 3.040	 GoodTrial	 allStim	 ra
35	 7	 1	 left	 LineStimuli//allStim/stimNo95r15c8v3.3.jpg	 l	 1.794	 GoodTrial	 allStim	 ra
36	 7	 0	 x	 LineStimuli//allStim/stimNo148r0c0v2.8.jpg	 r	 2.564	 GoodTrial	 allStim	 ra
37	 7	 1	 right	 LineStimuli//allStim/stimNo105r7c20v3.3.jpg	 l	 1.682	 GoodTrial	 allStim	 ra
38	 7	 1	 left	 LineStimuli//allStim/stimNo93r3c5v3.3.jpg	 l	 1.981	 GoodTrial	 allStim	 ra
39	 7	 1	 right	 LineStimuli//allStim/stimNo102r10c19v4.3.jpg	 r	 1.544	 GoodTrial	 allStim	 ra
40	 7	 1	 left	 LineStimuli//allStim/stimNo112r3c2v2.3.jpg	 l	 2.013	 GoodTrial	 allStim	 ra
41	 7	 0	 x	 LineStimuli//allStim/stimNo156r0c0v2.3.jpg	 r	 3.854	 GoodTrial	 allStim	 ra
42	 7	 1	 right	 LineStimuli//allStim/stimNo87r13c19v2.3.jpg	 r	 2.694	 GoodTrial	 allStim	 ra
43	 7	 1	 left	 LineStimuli//allStim/stimNo83r9c9v3.8.jpg	 l	 1.895	 GoodTrial	 allStim	 ra
44	 7	 0	 x	 LineStimuli//allStim/stimNo140r0c0v2.8.jpg	 r	 5.173	 GoodTrial	 allStim	 ra
45	 7	 0	 x	 LineStimuli//allStim/stimNo129r0c0v2.3.jpg	 r	 4.056	 GoodTrial	 allStim	 ra
46	 7	 0	 x	 LineStimuli//allStim/stimNo138r0c0v2.3.jpg	 r	 2.288	 GoodTrial	 allStim	 ra
47	 7	 1	 right	 LineStimuli//allStim/stimNo102r14c17v1.8.jpg	 l	 2.921	 GoodTrial	 allStim	 ra
48	 7	 0	 x	 LineStimuli//allStim/stimNo151r0c0v4.3.jpg	 r	 2.889	 GoodTrial	 allStim	 ra
49	 7	 0	 x	 LineStimuli//allStim/stimNo141r0c0v2.3.jpg	 r	 2.088	 GoodTrial	 allStim	 ra
50	 7	 0	 x	 LineStimuli//allStim/stimNo135r0c0v4.3.jpg	 r	 2.052	 GoodTrial	 allStim	 ra
