Trial	Block	Target_pr	Target_side	Name	Key	RT	Message	Block_Type	Condition
1	 1	 0	 x	 LineStimuli//allStim/stimNo131r0c0v3.3.jpg	 r	 1.144	 GoodTrial	 allStim	 ra
2	 1	 1	 right	 LineStimuli//allStim/stimNo84r6c16v3.3.jpg	 l	 2.613	 GoodTrial	 allStim	 ra
3	 1	 1	 left	 LineStimuli//allStim/stimNo119r8c5v2.8.jpg	 l	 1.800	 GoodTrial	 allStim	 ra
4	 1	 0	 x	 LineStimuli//allStim/stimNo132r0c0v2.3.jpg	 r	 2.523	 GoodTrial	 allStim	 ra
5	 1	 1	 left	 LineStimuli//allStim/stimNo85r13c2v1.8.jpg	 r	 2.008	 GoodTrial	 allStim	 ra
6	 1	 0	 x	 LineStimuli//allStim/stimNo153r0c0v1.5.jpg	 r	 2.649	 GoodTrial	 allStim	 ra
7	 1	 0	 x	 LineStimuli//allStim/stimNo145r0c0v2.8.jpg	 r	 2.104	 GoodTrial	 allStim	 ra
8	 1	 1	 right	 LineStimuli//allStim/stimNo111r11c21v2.3.jpg	 l	 1.795	 GoodTrial	 allStim	 ra
9	 1	 1	 left	 LineStimuli//allStim/stimNo95r15c8v3.3.jpg	 l	 1.866	 GoodTrial	 allStim	 ra
10	 1	 0	 x	 LineStimuli//allStim/stimNo147r0c0v2.3.jpg	 r	 3.144	 GoodTrial	 allStim	 ra
11	 1	 0	 x	 LineStimuli//allStim/stimNo159r0c0v1.5.jpg	 l	 3.544	 GoodTrial	 allStim	 ra
12	 1	 1	 right	 LineStimuli//allStim/stimNo86r6c16v1.5.jpg	 x	 0.864	 EARLY_RESPONSE	 allStim	 ra
13	 1	 0	 x	 LineStimuli//allStim/stimNo128r0c0v3.8.jpg	 r	 4.423	 GoodTrial	 allStim	 ra
14	 1	 1	 right	 LineStimuli//allStim/stimNo91r12c16v3.3.jpg	 l	 1.593	 GoodTrial	 allStim	 ra
15	 1	 0	 x	 LineStimuli//allStim/stimNo125r0c0v1.8.jpg	 r	 6.901	 GoodTrial	 allStim	 ra
16	 1	 0	 x	 LineStimuli//allStim/stimNo143r0c0v2.3.jpg	 r	 1.800	 GoodTrial	 allStim	 ra
17	 1	 1	 right	 LineStimuli//allStim/stimNo118r11c15v1.8.jpg	 l	 1.744	 GoodTrial	 allStim	 ra
18	 1	 0	 x	 LineStimuli//allStim/stimNo138r0c0v1.8.jpg	 l	 3.552	 GoodTrial	 allStim	 ra
19	 1	 0	 x	 LineStimuli//allStim/stimNo136r0c0v4.3.jpg	 r	 3.329	 GoodTrial	 allStim	 ra
20	 1	 1	 left	 LineStimuli//allStim/stimNo102r7c6v1.5.jpg	 l	 4.358	 GoodTrial	 allStim	 ra
21	 1	 1	 left	 LineStimuli//allStim/stimNo110r4c3v3.3.jpg	 l	 1.686	 GoodTrial	 allStim	 ra
22	 1	 1	 right	 LineStimuli//allStim/stimNo109r15c15v4.3.jpg	 l	 1.607	 GoodTrial	 allStim	 ra
23	 1	 1	 left	 LineStimuli//allStim/stimNo93r9c9v4.3.jpg	 l	 1.496	 GoodTrial	 allStim	 ra
24	 1	 0	 x	 LineStimuli//allStim/stimNo143r0c0v1.5.jpg	 l	 4.407	 GoodTrial	 allStim	 ra
25	 1	 0	 x	 LineStimuli//allStim/stimNo154r0c0v4.3.jpg	 r	 3.017	 GoodTrial	 allStim	 ra
26	 1	 1	 right	 LineStimuli//allStim/stimNo110r7c14v2.8.jpg	 l	 1.569	 GoodTrial	 allStim	 ra
27	 1	 0	 x	 LineStimuli//allStim/stimNo130r0c0v2.3.jpg	 r	 3.383	 GoodTrial	 allStim	 ra
28	 1	 0	 x	 LineStimuli//allStim/stimNo123r0c0v3.8.jpg	 r	 2.605	 GoodTrial	 allStim	 ra
29	 1	 0	 x	 LineStimuli//allStim/stimNo155r0c0v1.8.jpg	 r	 2.055	 GoodTrial	 allStim	 ra
30	 1	 1	 right	 LineStimuli//allStim/stimNo84r3c18v1.5.jpg	 l	 1.527	 GoodTrial	 allStim	 ra
31	 1	 1	 left	 LineStimuli//allStim/stimNo94r13c8v1.8.jpg	 l	 2.811	 GoodTrial	 allStim	 ra
32	 1	 0	 x	 LineStimuli//allStim/stimNo133r0c0v2.8.jpg	 r	 1.905	 GoodTrial	 allStim	 ra
33	 1	 0	 x	 LineStimuli//allStim/stimNo157r0c0v2.3.jpg	 r	 5.888	 GoodTrial	 allStim	 ra
34	 1	 1	 left	 LineStimuli//allStim/stimNo117r7c8v1.5.jpg	 l	 2.882	 GoodTrial	 allStim	 ra
35	 1	 1	 right	 LineStimuli//allStim/stimNo93r14c18v1.5.jpg	 l	 3.192	 GoodTrial	 allStim	 ra
36	 1	 0	 x	 LineStimuli//allStim/stimNo142r0c0v1.8.jpg	 r	 3.840	 GoodTrial	 allStim	 ra
37	 1	 1	 left	 LineStimuli//allStim/stimNo95r4c9v1.8.jpg	 r	 1.870	 GoodTrial	 allStim	 ra
38	 1	 1	 left	 LineStimuli//allStim/stimNo102r3c2v2.8.jpg	 l	 1.504	 GoodTrial	 allStim	 ra
39	 1	 1	 right	 LineStimuli//allStim/stimNo95r5c21v3.8.jpg	 l	 5.784	 GoodTrial	 allStim	 ra
40	 1	 0	 x	 LineStimuli//allStim/stimNo122r0c0v3.3.jpg	 r	 4.726	 GoodTrial	 allStim	 ra
41	 1	 1	 left	 LineStimuli//allStim/stimNo103r11c7v3.8.jpg	 l	 1.565	 GoodTrial	 allStim	 ra
42	 1	 1	 left	 LineStimuli//allStim/stimNo93r8c2v3.8.jpg	 l	 2.508	 GoodTrial	 allStim	 ra
43	 1	 1	 right	 LineStimuli//allStim/stimNo95r9c18v2.8.jpg	 l	 2.063	 GoodTrial	 allStim	 ra
44	 1	 1	 left	 LineStimuli//allStim/stimNo117r11c8v2.3.jpg	 l	 2.158	 GoodTrial	 allStim	 ra
45	 1	 0	 x	 LineStimuli//allStim/stimNo138r0c0v2.8.jpg	 r	 2.715	 GoodTrial	 allStim	 ra
46	 1	 0	 x	 LineStimuli//allStim/stimNo147r0c0v1.5.jpg	 l	 2.164	 GoodTrial	 allStim	 ra
47	 1	 0	 x	 LineStimuli//allStim/stimNo139r0c0v3.3.jpg	 r	 2.227	 GoodTrial	 allStim	 ra
48	 1	 0	 x	 LineStimuli//allStim/stimNo124r0c0v2.8.jpg	 r	 2.177	 GoodTrial	 allStim	 ra
49	 1	 0	 x	 LineStimuli//allStim/stimNo127r0c0v3.3.jpg	 r	 2.409	 GoodTrial	 allStim	 ra
50	 1	 0	 x	 LineStimuli//allStim/stimNo147r0c0v3.8.jpg	 r	 1.573	 GoodTrial	 allStim	 ra
1	 2	 0	 x	 LineStimuli//allStim/stimNo144r0c0v2.8.jpg	 r	 2.127	 GoodTrial	 allStim	 ra
2	 2	 0	 x	 LineStimuli//allStim/stimNo126r0c0v3.3.jpg	 r	 1.837	 GoodTrial	 allStim	 ra
3	 2	 0	 x	 LineStimuli//allStim/stimNo140r0c0v3.3.jpg	 r	 1.981	 GoodTrial	 allStim	 ra
4	 2	 0	 x	 LineStimuli//allStim/stimNo142r0c0v3.8.jpg	 r	 1.515	 GoodTrial	 allStim	 ra
5	 2	 1	 right	 LineStimuli//allStim/stimNo82r7c18v4.3.jpg	 l	 1.536	 GoodTrial	 allStim	 ra
6	 2	 0	 x	 LineStimuli//allStim/stimNo150r0c0v3.8.jpg	 r	 1.961	 GoodTrial	 allStim	 ra
7	 2	 1	 left	 LineStimuli//allStim/stimNo113r6c7v1.8.jpg	 l	 2.158	 GoodTrial	 allStim	 ra
8	 2	 0	 x	 LineStimuli//allStim/stimNo127r0c0v3.8.jpg	 r	 1.823	 GoodTrial	 allStim	 ra
9	 2	 1	 left	 LineStimuli//allStim/stimNo96r6c9v2.8.jpg	 r	 1.473	 GoodTrial	 allStim	 ra
10	 2	 1	 right	 LineStimuli//allStim/stimNo87r6c13v3.8.jpg	 l	 1.460	 GoodTrial	 allStim	 ra
11	 2	 1	 right	 LineStimuli//allStim/stimNo109r7c17v1.8.jpg	 r	 3.031	 GoodTrial	 allStim	 ra
12	 2	 1	 right	 LineStimuli//allStim/stimNo115r10c18v4.3.jpg	 l	 2.049	 GoodTrial	 allStim	 ra
13	 2	 0	 x	 LineStimuli//allStim/stimNo131r0c0v3.8.jpg	 r	 3.623	 GoodTrial	 allStim	 ra
14	 2	 1	 left	 LineStimuli//allStim/stimNo88r10c3v4.3.jpg	 l	 2.044	 GoodTrial	 allStim	 ra
15	 2	 1	 left	 LineStimuli//allStim/stimNo104r4c4v3.3.jpg	 l	 2.867	 GoodTrial	 allStim	 ra
16	 2	 1	 left	 LineStimuli//allStim/stimNo98r15c5v1.8.jpg	 r	 2.961	 GoodTrial	 allStim	 ra
17	 2	 1	 left	 LineStimuli//allStim/stimNo101r5c5v4.3.jpg	 l	 1.482	 GoodTrial	 allStim	 ra
18	 2	 0	 x	 LineStimuli//allStim/stimNo144r0c0v2.3.jpg	 l	 2.482	 GoodTrial	 allStim	 ra
19	 2	 0	 x	 LineStimuli//allStim/stimNo144r0c0v3.3.jpg	 r	 3.520	 GoodTrial	 allStim	 ra
20	 2	 1	 left	 LineStimuli//allStim/stimNo119r9c8v3.8.jpg	 l	 1.527	 GoodTrial	 allStim	 ra
21	 2	 1	 left	 LineStimuli//allStim/stimNo103r6c6v3.3.jpg	 l	 2.208	 GoodTrial	 allStim	 ra
22	 2	 1	 left	 LineStimuli//allStim/stimNo114r7c8v2.3.jpg	 l	 1.718	 GoodTrial	 allStim	 ra
23	 2	 1	 left	 LineStimuli//allStim/stimNo86r14c4v1.8.jpg	 l	 3.818	 GoodTrial	 allStim	 ra
24	 2	 1	 right	 LineStimuli//allStim/stimNo102r10c17v3.8.jpg	 l	 1.627	 GoodTrial	 allStim	 ra
25	 2	 1	 right	 LineStimuli//allStim/stimNo81r6c17v1.5.jpg	 l	 2.747	 GoodTrial	 allStim	 ra
26	 2	 1	 right	 LineStimuli//allStim/stimNo112r13c17v2.8.jpg	 l	 1.984	 GoodTrial	 allStim	 ra
27	 2	 1	 left	 LineStimuli//allStim/stimNo105r2c6v3.8.jpg	 l	 1.547	 GoodTrial	 allStim	 ra
28	 2	 0	 x	 LineStimuli//allStim/stimNo153r0c0v4.3.jpg	 x	 3.705	 GoodTrial	 allStim	 ra
29	 2	 0	 x	 LineStimuli//allStim/stimNo132r0c0v1.5.jpg	 l	 7.757	 GoodTrial	 allStim	 ra
30	 2	 0	 x	 LineStimuli//allStim/stimNo147r0c0v1.8.jpg	 l	 2.816	 GoodTrial	 allStim	 ra
31	 2	 0	 x	 LineStimuli//allStim/stimNo136r0c0v3.3.jpg	 r	 1.885	 GoodTrial	 allStim	 ra
32	 2	 0	 x	 LineStimuli//allStim/stimNo157r0c0v4.3.jpg	 r	 1.629	 GoodTrial	 allStim	 ra
33	 2	 1	 right	 LineStimuli//allStim/stimNo91r11c20v2.3.jpg	 l	 1.563	 GoodTrial	 allStim	 ra
34	 2	 1	 left	 LineStimuli//allStim/stimNo100r3c3v3.3.jpg	 l	 1.525	 GoodTrial	 allStim	 ra
35	 2	 1	 left	 LineStimuli//allStim/stimNo107r5c4v1.8.jpg	 l	 1.545	 GoodTrial	 allStim	 ra
36	 2	 0	 x	 LineStimuli//allStim/stimNo150r0c0v1.8.jpg	 r	 1.832	 GoodTrial	 allStim	 ra
37	 2	 0	 x	 LineStimuli//allStim/stimNo153r0c0v2.3.jpg	 r	 2.056	 GoodTrial	 allStim	 ra
38	 2	 0	 x	 LineStimuli//allStim/stimNo147r0c0v3.3.jpg	 r	 2.124	 GoodTrial	 allStim	 ra
39	 2	 1	 left	 LineStimuli//allStim/stimNo110r4c7v1.8.jpg	 l	 1.644	 GoodTrial	 allStim	 ra
40	 2	 0	 x	 LineStimuli//allStim/stimNo131r0c0v3.3.jpg	 r	 1.872	 GoodTrial	 allStim	 ra
41	 2	 0	 x	 LineStimuli//allStim/stimNo143r0c0v2.3.jpg	 x	 3.135	 GoodTrial	 allStim	 ra
42	 2	 1	 left	 LineStimuli//allStim/stimNo95r11c9v4.3.jpg	 l	 1.542	 GoodTrial	 allStim	 ra
43	 2	 0	 x	 LineStimuli//allStim/stimNo158r0c0v2.3.jpg	 r	 2.204	 GoodTrial	 allStim	 ra
44	 2	 0	 x	 LineStimuli//allStim/stimNo129r0c0v2.3.jpg	 r	 1.790	 GoodTrial	 allStim	 ra
45	 2	 1	 right	 LineStimuli//allStim/stimNo116r10c14v3.3.jpg	 l	 1.536	 GoodTrial	 allStim	 ra
46	 2	 1	 right	 LineStimuli//allStim/stimNo81r3c21v3.8.jpg	 l	 2.079	 GoodTrial	 allStim	 ra
47	 2	 0	 x	 LineStimuli//allStim/stimNo125r0c0v3.8.jpg	 r	 3.204	 GoodTrial	 allStim	 ra
48	 2	 0	 x	 LineStimuli//allStim/stimNo151r0c0v4.3.jpg	 r	 1.753	 GoodTrial	 allStim	 ra
49	 2	 1	 left	 LineStimuli//allStim/stimNo106r8c2v4.3.jpg	 l	 1.525	 GoodTrial	 allStim	 ra
50	 2	 0	 x	 LineStimuli//allStim/stimNo126r0c0v1.8.jpg	 r	 4.097	 GoodTrial	 allStim	 ra
1	 3	 0	 x	 LineStimuli//allStim/stimNo126r0c0v2.8.jpg	 r	 4.143	 GoodTrial	 allStim	 ra
2	 3	 0	 x	 LineStimuli//allStim/stimNo153r0c0v2.8.jpg	 r	 1.913	 GoodTrial	 allStim	 ra
3	 3	 1	 left	 LineStimuli//allStim/stimNo86r7c3v4.3.jpg	 l	 1.634	 GoodTrial	 allStim	 ra
4	 3	 1	 left	 LineStimuli//allStim/stimNo86r15c6v2.8.jpg	 l	 1.813	 GoodTrial	 allStim	 ra
5	 3	 0	 x	 LineStimuli//allStim/stimNo144r0c0v4.3.jpg	 r	 1.912	 GoodTrial	 allStim	 ra
6	 3	 1	 right	 LineStimuli//allStim/stimNo82r9c21v3.8.jpg	 l	 1.504	 GoodTrial	 allStim	 ra
7	 3	 0	 x	 LineStimuli//allStim/stimNo151r0c0v3.3.jpg	 r	 2.017	 GoodTrial	 allStim	 ra
8	 3	 0	 x	 LineStimuli//allStim/stimNo136r0c0v2.3.jpg	 r	 2.199	 GoodTrial	 allStim	 ra
9	 3	 1	 right	 LineStimuli//allStim/stimNo107r9c18v3.8.jpg	 l	 1.511	 GoodTrial	 allStim	 ra
10	 3	 0	 x	 LineStimuli//allStim/stimNo144r0c0v2.3.jpg	 r	 1.789	 GoodTrial	 allStim	 ra
11	 3	 1	 left	 LineStimuli//allStim/stimNo105r14c6v4.3.jpg	 l	 1.498	 GoodTrial	 allStim	 ra
12	 3	 1	 right	 LineStimuli//allStim/stimNo96r2c13v3.8.jpg	 l	 1.832	 GoodTrial	 allStim	 ra
13	 3	 1	 right	 LineStimuli//allStim/stimNo116r5c13v4.3.jpg	 l	 1.492	 GoodTrial	 allStim	 ra
14	 3	 0	 x	 LineStimuli//allStim/stimNo159r0c0v1.8.jpg	 r	 2.333	 GoodTrial	 allStim	 ra
15	 3	 0	 x	 LineStimuli//allStim/stimNo134r0c0v3.8.jpg	 x	 0.992	 EARLY_RESPONSE	 allStim	 ra
16	 3	 1	 left	 LineStimuli//allStim/stimNo109r11c8v3.8.jpg	 l	 1.504	 GoodTrial	 allStim	 ra
17	 3	 1	 left	 LineStimuli//allStim/stimNo81r6c8v1.8.jpg	 l	 1.660	 GoodTrial	 allStim	 ra
18	 3	 1	 left	 LineStimuli//allStim/stimNo105r2c6v3.8.jpg	 l	 1.552	 GoodTrial	 allStim	 ra
19	 3	 1	 right	 LineStimuli//allStim/stimNo82r7c18v4.3.jpg	 l	 1.514	 GoodTrial	 allStim	 ra
20	 3	 0	 x	 LineStimuli//allStim/stimNo126r0c0v3.3.jpg	 r	 1.872	 GoodTrial	 allStim	 ra
21	 3	 1	 right	 LineStimuli//allStim/stimNo95r6c14v1.5.jpg	 l	 5.055	 GoodTrial	 allStim	 ra
22	 3	 0	 x	 LineStimuli//allStim/stimNo144r0c0v3.3.jpg	 r	 3.914	 GoodTrial	 allStim	 ra
23	 3	 0	 x	 LineStimuli//allStim/stimNo143r0c0v1.5.jpg	 r	 1.984	 GoodTrial	 allStim	 ra
24	 3	 0	 x	 LineStimuli//allStim/stimNo141r0c0v4.3.jpg	 r	 1.793	 GoodTrial	 allStim	 ra
25	 3	 0	 x	 LineStimuli//allStim/stimNo147r0c0v2.3.jpg	 r	 2.528	 GoodTrial	 allStim	 ra
26	 3	 0	 x	 LineStimuli//allStim/stimNo125r0c0v4.3.jpg	 r	 1.635	 GoodTrial	 allStim	 ra
27	 3	 1	 right	 LineStimuli//allStim/stimNo99r9c18v2.8.jpg	 l	 1.512	 GoodTrial	 allStim	 ra
28	 3	 1	 left	 LineStimuli//allStim/stimNo86r5c7v3.3.jpg	 l	 1.833	 GoodTrial	 allStim	 ra
29	 3	 1	 right	 LineStimuli//allStim/stimNo87r13c19v2.3.jpg	 l	 1.615	 GoodTrial	 allStim	 ra
30	 3	 1	 right	 LineStimuli//allStim/stimNo120r4c17v2.3.jpg	 l	 1.519	 GoodTrial	 allStim	 ra
31	 3	 1	 right	 LineStimuli//allStim/stimNo107r2c19v1.5.jpg	 r	 5.982	 GoodTrial	 allStim	 ra
32	 3	 0	 x	 LineStimuli//allStim/stimNo150r0c0v2.8.jpg	 r	 42.427	 GoodTrial	 allStim	 ra
33	 3	 1	 right	 LineStimuli//allStim/stimNo84r9c19v3.8.jpg	 l	 1.725	 GoodTrial	 allStim	 ra
34	 3	 1	 right	 LineStimuli//allStim/stimNo92r2c20v4.3.jpg	 r	 2.521	 GoodTrial	 allStim	 ra
35	 3	 0	 x	 LineStimuli//allStim/stimNo135r0c0v3.8.jpg	 r	 2.504	 GoodTrial	 allStim	 ra
36	 3	 1	 left	 LineStimuli//allStim/stimNo96r3c3v2.3.jpg	 l	 1.993	 GoodTrial	 allStim	 ra
37	 3	 0	 x	 LineStimuli//allStim/stimNo151r0c0v1.5.jpg	 r	 2.604	 GoodTrial	 allStim	 ra
38	 3	 0	 x	 LineStimuli//allStim/stimNo159r0c0v1.5.jpg	 r	 1.821	 GoodTrial	 allStim	 ra
39	 3	 1	 right	 LineStimuli//allStim/stimNo100r6c20v1.5.jpg	 l	 1.928	 GoodTrial	 allStim	 ra
40	 3	 1	 right	 LineStimuli//allStim/stimNo95r5c21v3.8.jpg	 l	 1.539	 GoodTrial	 allStim	 ra
41	 3	 0	 x	 LineStimuli//allStim/stimNo135r0c0v3.3.jpg	 r	 1.912	 GoodTrial	 allStim	 ra
42	 3	 1	 left	 LineStimuli//allStim/stimNo112r3c2v2.3.jpg	 l	 1.555	 GoodTrial	 allStim	 ra
43	 3	 1	 left	 LineStimuli//allStim/stimNo106r9c9v3.3.jpg	 l	 1.643	 GoodTrial	 allStim	 ra
44	 3	 0	 x	 LineStimuli//allStim/stimNo149r0c0v3.3.jpg	 r	 2.265	 GoodTrial	 allStim	 ra
45	 3	 0	 x	 LineStimuli//allStim/stimNo127r0c0v3.8.jpg	 r	 1.588	 GoodTrial	 allStim	 ra
46	 3	 1	 left	 LineStimuli//allStim/stimNo96r6c9v2.8.jpg	 l	 1.552	 GoodTrial	 allStim	 ra
47	 3	 0	 x	 LineStimuli//allStim/stimNo139r0c0v4.3.jpg	 r	 1.732	 GoodTrial	 allStim	 ra
48	 3	 1	 right	 LineStimuli//allStim/stimNo120r8c20v2.8.jpg	 l	 1.508	 GoodTrial	 allStim	 ra
49	 3	 0	 x	 LineStimuli//allStim/stimNo152r0c0v1.5.jpg	 r	 1.687	 GoodTrial	 allStim	 ra
50	 3	 0	 x	 LineStimuli//allStim/stimNo140r0c0v2.3.jpg	 r	 1.850	 GoodTrial	 allStim	 ra
1	 4	 1	 left	 LineStimuli//allStim/stimNo105r6c5v1.8.jpg	 x	 0.040	 EARLY_RESPONSE	 allStim	 ra
2	 4	 0	 x	 LineStimuli//allStim/stimNo148r0c0v1.5.jpg	 r	 3.502	 GoodTrial	 allStim	 ra
3	 4	 0	 x	 LineStimuli//allStim/stimNo123r0c0v3.8.jpg	 r	 1.730	 GoodTrial	 allStim	 ra
4	 4	 1	 right	 LineStimuli//allStim/stimNo114r11c21v3.3.jpg	 l	 1.614	 GoodTrial	 allStim	 ra
5	 4	 0	 x	 LineStimuli//allStim/stimNo144r0c0v3.3.jpg	 r	 1.855	 GoodTrial	 allStim	 ra
6	 4	 0	 x	 LineStimuli//allStim/stimNo153r0c0v1.5.jpg	 l	 1.736	 GoodTrial	 allStim	 ra
7	 4	 0	 x	 LineStimuli//allStim/stimNo127r0c0v1.5.jpg	 r	 1.724	 GoodTrial	 allStim	 ra
8	 4	 1	 right	 LineStimuli//allStim/stimNo97r15c18v1.8.jpg	 r	 1.687	 GoodTrial	 allStim	 ra
9	 4	 1	 left	 LineStimuli//allStim/stimNo103r11c7v3.8.jpg	 l	 1.489	 GoodTrial	 allStim	 ra
10	 4	 1	 right	 LineStimuli//allStim/stimNo82r11c20v3.3.jpg	 l	 1.485	 GoodTrial	 allStim	 ra
11	 4	 1	 left	 LineStimuli//allStim/stimNo86r5c7v3.3.jpg	 l	 1.498	 GoodTrial	 allStim	 ra
12	 4	 0	 x	 LineStimuli//allStim/stimNo129r0c0v2.3.jpg	 r	 1.801	 GoodTrial	 allStim	 ra
13	 4	 1	 right	 LineStimuli//allStim/stimNo95r9c18v2.8.jpg	 l	 1.502	 GoodTrial	 allStim	 ra
14	 4	 0	 x	 LineStimuli//allStim/stimNo152r0c0v1.8.jpg	 r	 2.082	 GoodTrial	 allStim	 ra
15	 4	 0	 x	 LineStimuli//allStim/stimNo141r0c0v3.3.jpg	 r	 1.872	 GoodTrial	 allStim	 ra
16	 4	 1	 right	 LineStimuli//allStim/stimNo96r4c19v4.3.jpg	 l	 2.093	 GoodTrial	 allStim	 ra
17	 4	 1	 left	 LineStimuli//allStim/stimNo82r4c6v2.8.jpg	 r	 1.911	 GoodTrial	 allStim	 ra
18	 4	 0	 x	 LineStimuli//allStim/stimNo159r0c0v3.3.jpg	 r	 1.840	 GoodTrial	 allStim	 ra
19	 4	 1	 left	 LineStimuli//allStim/stimNo103r10c4v4.3.jpg	 l	 1.505	 GoodTrial	 allStim	 ra
20	 4	 1	 left	 LineStimuli//allStim/stimNo97r3c3v2.3.jpg	 l	 4.642	 GoodTrial	 allStim	 ra
21	 4	 0	 x	 LineStimuli//allStim/stimNo148r0c0v2.3.jpg	 r	 2.729	 GoodTrial	 allStim	 ra
22	 4	 0	 x	 LineStimuli//allStim/stimNo149r0c0v2.3.jpg	 r	 1.670	 GoodTrial	 allStim	 ra
23	 4	 0	 x	 LineStimuli//allStim/stimNo124r0c0v1.5.jpg	 r	 2.552	 GoodTrial	 allStim	 ra
24	 4	 0	 x	 LineStimuli//allStim/stimNo141r0c0v2.8.jpg	 r	 3.424	 GoodTrial	 allStim	 ra
25	 4	 1	 left	 LineStimuli//allStim/stimNo94r13c7v2.8.jpg	 r	 1.728	 GoodTrial	 allStim	 ra
26	 4	 1	 right	 LineStimuli//allStim/stimNo96r8c18v3.3.jpg	 l	 1.716	 GoodTrial	 allStim	 ra
27	 4	 0	 x	 LineStimuli//allStim/stimNo141r0c0v1.8.jpg	 r	 3.626	 GoodTrial	 allStim	 ra
28	 4	 1	 left	 LineStimuli//allStim/stimNo89r10c7v3.8.jpg	 l	 1.518	 GoodTrial	 allStim	 ra
29	 4	 1	 left	 LineStimuli//allStim/stimNo87r12c5v1.5.jpg	 l	 1.711	 GoodTrial	 allStim	 ra
30	 4	 0	 x	 LineStimuli//allStim/stimNo130r0c0v3.8.jpg	 r	 2.657	 GoodTrial	 allStim	 ra
31	 4	 1	 left	 LineStimuli//allStim/stimNo88r15c9v1.8.jpg	 l	 3.361	 GoodTrial	 allStim	 ra
32	 4	 0	 x	 LineStimuli//allStim/stimNo128r0c0v2.8.jpg	 r	 3.080	 GoodTrial	 allStim	 ra
33	 4	 1	 right	 LineStimuli//allStim/stimNo97r6c21v4.3.jpg	 l	 1.664	 GoodTrial	 allStim	 ra
34	 4	 1	 left	 LineStimuli//allStim/stimNo84r3c9v2.8.jpg	 x	 0.785	 EARLY_RESPONSE	 allStim	 ra
35	 4	 0	 x	 LineStimuli//allStim/stimNo142r0c0v3.3.jpg	 r	 2.212	 GoodTrial	 allStim	 ra
36	 4	 0	 x	 LineStimuli//allStim/stimNo124r0c0v2.8.jpg	 r	 1.635	 GoodTrial	 allStim	 ra
37	 4	 1	 right	 LineStimuli//allStim/stimNo113r13c15v3.3.jpg	 l	 1.641	 GoodTrial	 allStim	 ra
38	 4	 0	 x	 LineStimuli//allStim/stimNo158r0c0v4.3.jpg	 r	 1.949	 GoodTrial	 allStim	 ra
39	 4	 1	 right	 LineStimuli//allStim/stimNo118r11c13v4.3.jpg	 l	 1.560	 GoodTrial	 allStim	 ra
40	 4	 1	 right	 LineStimuli//allStim/stimNo91r10c16v3.8.jpg	 l	 1.460	 GoodTrial	 allStim	 ra
41	 4	 0	 x	 LineStimuli//allStim/stimNo131r0c0v2.3.jpg	 r	 3.118	 GoodTrial	 allStim	 ra
42	 4	 0	 x	 LineStimuli//allStim/stimNo136r0c0v3.3.jpg	 r	 1.671	 GoodTrial	 allStim	 ra
43	 4	 0	 x	 LineStimuli//allStim/stimNo155r0c0v4.3.jpg	 r	 1.569	 GoodTrial	 allStim	 ra
44	 4	 0	 x	 LineStimuli//allStim/stimNo137r0c0v3.8.jpg	 r	 1.721	 GoodTrial	 allStim	 ra
45	 4	 1	 right	 LineStimuli//allStim/stimNo120r4c17v2.3.jpg	 l	 1.650	 GoodTrial	 allStim	 ra
46	 4	 0	 x	 LineStimuli//allStim/stimNo124r0c0v2.3.jpg	 r	 1.765	 GoodTrial	 allStim	 ra
47	 4	 0	 x	 LineStimuli//allStim/stimNo129r0c0v3.8.jpg	 r	 1.923	 GoodTrial	 allStim	 ra
48	 4	 0	 x	 LineStimuli//allStim/stimNo157r0c0v3.8.jpg	 r	 1.625	 GoodTrial	 allStim	 ra
49	 4	 1	 left	 LineStimuli//allStim/stimNo117r11c8v2.3.jpg	 l	 1.688	 GoodTrial	 allStim	 ra
50	 4	 0	 x	 LineStimuli//allStim/stimNo158r0c0v1.5.jpg	 l	 2.872	 GoodTrial	 allStim	 ra
1	 5	 0	 x	 LineStimuli//allStim/stimNo137r0c0v2.8.jpg	 x	 0.735	 EARLY_RESPONSE	 allStim	 ra
2	 5	 0	 x	 LineStimuli//allStim/stimNo157r0c0v1.8.jpg	 r	 2.203	 GoodTrial	 allStim	 ra
3	 5	 0	 x	 LineStimuli//allStim/stimNo155r0c0v2.8.jpg	 r	 1.601	 GoodTrial	 allStim	 ra
4	 5	 1	 left	 LineStimuli//allStim/stimNo113r6c7v1.8.jpg	 l	 1.741	 GoodTrial	 allStim	 ra
5	 5	 0	 x	 LineStimuli//allStim/stimNo158r0c0v2.8.jpg	 r	 2.712	 GoodTrial	 allStim	 ra
6	 5	 1	 right	 LineStimuli//allStim/stimNo92r10c18v1.8.jpg	 r	 1.635	 GoodTrial	 allStim	 ra
7	 5	 0	 x	 LineStimuli//allStim/stimNo144r0c0v4.3.jpg	 r	 1.804	 GoodTrial	 allStim	 ra
8	 5	 0	 x	 LineStimuli//allStim/stimNo131r0c0v3.8.jpg	 r	 1.908	 GoodTrial	 allStim	 ra
9	 5	 1	 right	 LineStimuli//allStim/stimNo91r11c20v2.3.jpg	 l	 1.642	 GoodTrial	 allStim	 ra
10	 5	 1	 right	 LineStimuli//allStim/stimNo89r5c21v3.3.jpg	 l	 1.638	 GoodTrial	 allStim	 ra
11	 5	 1	 left	 LineStimuli//allStim/stimNo103r15c10v1.8.jpg	 l	 2.322	 GoodTrial	 allStim	 ra
12	 5	 1	 right	 LineStimuli//allStim/stimNo116r5c13v4.3.jpg	 l	 1.521	 GoodTrial	 allStim	 ra
13	 5	 0	 x	 LineStimuli//allStim/stimNo129r0c0v1.5.jpg	 r	 6.072	 GoodTrial	 allStim	 ra
14	 5	 0	 x	 LineStimuli//allStim/stimNo143r0c0v2.8.jpg	 r	 2.040	 GoodTrial	 allStim	 ra
15	 5	 1	 left	 LineStimuli//allStim/stimNo83r12c7v1.5.jpg	 l	 2.173	 GoodTrial	 allStim	 ra
16	 5	 0	 x	 LineStimuli//allStim/stimNo122r0c0v1.5.jpg	 r	 2.650	 GoodTrial	 allStim	 ra
17	 5	 1	 left	 LineStimuli//allStim/stimNo90r2c9v3.3.jpg	 l	 1.784	 GoodTrial	 allStim	 ra
18	 5	 1	 right	 LineStimuli//allStim/stimNo118r4c17v2.3.jpg	 l	 1.653	 GoodTrial	 allStim	 ra
19	 5	 0	 x	 LineStimuli//allStim/stimNo130r0c0v2.8.jpg	 r	 1.665	 GoodTrial	 allStim	 ra
20	 5	 0	 x	 LineStimuli//allStim/stimNo125r0c0v1.8.jpg	 r	 1.922	 GoodTrial	 allStim	 ra
21	 5	 0	 x	 LineStimuli//allStim/stimNo130r0c0v4.3.jpg	 r	 1.608	 GoodTrial	 allStim	 ra
22	 5	 0	 x	 LineStimuli//allStim/stimNo136r0c0v1.8.jpg	 r	 1.825	 GoodTrial	 allStim	 ra
23	 5	 0	 x	 LineStimuli//allStim/stimNo122r0c0v2.8.jpg	 r	 1.589	 GoodTrial	 allStim	 ra
24	 5	 0	 x	 LineStimuli//allStim/stimNo156r0c0v4.3.jpg	 r	 1.613	 GoodTrial	 allStim	 ra
25	 5	 1	 left	 LineStimuli//allStim/stimNo104r15c2v4.3.jpg	 l	 1.660	 GoodTrial	 allStim	 ra
26	 5	 0	 x	 LineStimuli//allStim/stimNo147r0c0v3.8.jpg	 r	 1.716	 GoodTrial	 allStim	 ra
27	 5	 0	 x	 LineStimuli//allStim/stimNo124r0c0v3.3.jpg	 r	 1.547	 GoodTrial	 allStim	 ra
28	 5	 0	 x	 LineStimuli//allStim/stimNo125r0c0v3.3.jpg	 r	 2.095	 GoodTrial	 allStim	 ra
29	 5	 0	 x	 LineStimuli//allStim/stimNo121r0c0v4.3.jpg	 x	 5.203	 GoodTrial	 allStim	 ra
30	 5	 0	 x	 LineStimuli//allStim/stimNo158r0c0v1.5.jpg	 r	 2.940	 GoodTrial	 allStim	 ra
31	 5	 1	 left	 LineStimuli//allStim/stimNo103r6c6v3.3.jpg	 l	 1.584	 GoodTrial	 allStim	 ra
32	 5	 0	 x	 LineStimuli//allStim/stimNo139r0c0v3.3.jpg	 r	 2.785	 GoodTrial	 allStim	 ra
33	 5	 0	 x	 LineStimuli//allStim/stimNo141r0c0v2.3.jpg	 r	 1.849	 GoodTrial	 allStim	 ra
34	 5	 0	 x	 LineStimuli//allStim/stimNo141r0c0v3.8.jpg	 r	 1.600	 GoodTrial	 allStim	 ra
35	 5	 1	 left	 LineStimuli//allStim/stimNo106r8c2v4.3.jpg	 l	 1.584	 GoodTrial	 allStim	 ra
36	 5	 0	 x	 LineStimuli//allStim/stimNo122r0c0v3.3.jpg	 r	 3.947	 GoodTrial	 allStim	 ra
37	 5	 0	 x	 LineStimuli//allStim/stimNo132r0c0v3.8.jpg	 r	 1.668	 GoodTrial	 allStim	 ra
38	 5	 1	 left	 LineStimuli//allStim/stimNo88r15c9v1.8.jpg	 r	 2.019	 GoodTrial	 allStim	 ra
39	 5	 1	 right	 LineStimuli//allStim/stimNo99r9c18v2.8.jpg	 l	 1.857	 GoodTrial	 allStim	 ra
40	 5	 0	 x	 LineStimuli//allStim/stimNo136r0c0v3.3.jpg	 r	 1.874	 GoodTrial	 allStim	 ra
41	 5	 0	 x	 LineStimuli//allStim/stimNo144r0c0v3.8.jpg	 r	 1.628	 GoodTrial	 allStim	 ra
42	 5	 1	 left	 LineStimuli//allStim/stimNo101r5c5v4.3.jpg	 l	 1.644	 GoodTrial	 allStim	 ra
43	 5	 0	 x	 LineStimuli//allStim/stimNo142r0c0v2.8.jpg	 r	 2.249	 GoodTrial	 allStim	 ra
44	 5	 1	 left	 LineStimuli//allStim/stimNo117r2c5v3.3.jpg	 r	 1.916	 GoodTrial	 allStim	 ra
45	 5	 0	 x	 LineStimuli//allStim/stimNo137r0c0v2.3.jpg	 r	 2.733	 GoodTrial	 allStim	 ra
46	 5	 1	 right	 LineStimuli//allStim/stimNo115r9c14v2.8.jpg	 l	 1.649	 GoodTrial	 allStim	 ra
47	 5	 1	 left	 LineStimuli//allStim/stimNo83r12c4v2.8.jpg	 l	 1.545	 GoodTrial	 allStim	 ra
48	 5	 1	 left	 LineStimuli//allStim/stimNo95r15c8v3.3.jpg	 l	 1.606	 GoodTrial	 allStim	 ra
49	 5	 0	 x	 LineStimuli//allStim/stimNo159r0c0v4.3.jpg	 r	 3.311	 GoodTrial	 allStim	 ra
50	 5	 0	 x	 LineStimuli//allStim/stimNo125r0c0v3.8.jpg	 r	 1.689	 GoodTrial	 allStim	 ra
1	 6	 1	 left	 LineStimuli//allStim/stimNo99r10c3v1.5.jpg	 x	 0.033	 EARLY_RESPONSE	 allStim	 ra
2	 6	 0	 x	 LineStimuli//allStim/stimNo152r0c0v1.5.jpg	 l	 2.832	 GoodTrial	 allStim	 ra
3	 6	 1	 left	 LineStimuli//allStim/stimNo112r3c2v2.3.jpg	 l	 1.884	 GoodTrial	 allStim	 ra
4	 6	 0	 x	 LineStimuli//allStim/stimNo147r0c0v3.8.jpg	 r	 4.816	 GoodTrial	 allStim	 ra
5	 6	 1	 right	 LineStimuli//allStim/stimNo99r12c16v1.8.jpg	 r	 1.784	 GoodTrial	 allStim	 ra
6	 6	 0	 x	 LineStimuli//allStim/stimNo132r0c0v1.8.jpg	 r	 3.272	 GoodTrial	 allStim	 ra
7	 6	 0	 x	 LineStimuli//allStim/stimNo157r0c0v2.8.jpg	 r	 1.821	 GoodTrial	 allStim	 ra
8	 6	 1	 right	 LineStimuli//allStim/stimNo103r3c19v2.8.jpg	 l	 1.600	 GoodTrial	 allStim	 ra
9	 6	 1	 right	 LineStimuli//allStim/stimNo114r8c19v2.8.jpg	 l	 1.592	 GoodTrial	 allStim	 ra
10	 6	 0	 x	 LineStimuli//allStim/stimNo135r0c0v2.8.jpg	 r	 2.341	 GoodTrial	 allStim	 ra
11	 6	 1	 left	 LineStimuli//allStim/stimNo91r14c4v1.8.jpg	 l	 2.360	 GoodTrial	 allStim	 ra
12	 6	 1	 left	 LineStimuli//allStim/stimNo103r11c7v3.8.jpg	 l	 1.824	 GoodTrial	 allStim	 ra
13	 6	 0	 x	 LineStimuli//allStim/stimNo149r0c0v4.3.jpg	 r	 1.836	 GoodTrial	 allStim	 ra
14	 6	 1	 left	 LineStimuli//allStim/stimNo109r15c7v3.3.jpg	 l	 1.544	 GoodTrial	 allStim	 ra
15	 6	 0	 x	 LineStimuli//allStim/stimNo151r0c0v3.3.jpg	 r	 1.732	 GoodTrial	 allStim	 ra
16	 6	 0	 x	 LineStimuli//allStim/stimNo156r0c0v4.3.jpg	 r	 1.555	 GoodTrial	 allStim	 ra
17	 6	 1	 right	 LineStimuli//allStim/stimNo106r13c20v2.8.jpg	 l	 1.649	 GoodTrial	 allStim	 ra
18	 6	 0	 x	 LineStimuli//allStim/stimNo143r0c0v2.3.jpg	 l	 3.169	 GoodTrial	 allStim	 ra
19	 6	 1	 left	 LineStimuli//allStim/stimNo116r2c2v2.3.jpg	 r	 1.712	 GoodTrial	 allStim	 ra
20	 6	 0	 x	 LineStimuli//allStim/stimNo130r0c0v3.8.jpg	 r	 1.894	 GoodTrial	 allStim	 ra
21	 6	 0	 x	 LineStimuli//allStim/stimNo137r0c0v2.3.jpg	 r	 2.056	 GoodTrial	 allStim	 ra
22	 6	 1	 right	 LineStimuli//allStim/stimNo101r12c17v3.8.jpg	 l	 1.618	 GoodTrial	 allStim	 ra
23	 6	 0	 x	 LineStimuli//allStim/stimNo153r0c0v2.8.jpg	 r	 2.277	 GoodTrial	 allStim	 ra
24	 6	 0	 x	 LineStimuli//allStim/stimNo160r0c0v2.8.jpg	 l	 3.277	 GoodTrial	 allStim	 ra
25	 6	 0	 x	 LineStimuli//allStim/stimNo123r0c0v3.8.jpg	 r	 1.737	 GoodTrial	 allStim	 ra
26	 6	 1	 right	 LineStimuli//allStim/stimNo114r10c14v3.8.jpg	 l	 1.672	 GoodTrial	 allStim	 ra
27	 6	 0	 x	 LineStimuli//allStim/stimNo122r0c0v4.3.jpg	 l	 2.594	 GoodTrial	 allStim	 ra
28	 6	 1	 right	 LineStimuli//allStim/stimNo115r9c14v2.8.jpg	 l	 1.712	 GoodTrial	 allStim	 ra
29	 6	 0	 x	 LineStimuli//allStim/stimNo150r0c0v4.3.jpg	 l	 2.092	 GoodTrial	 allStim	 ra
30	 6	 1	 right	 LineStimuli//allStim/stimNo90r14c21v2.3.jpg	 l	 2.813	 GoodTrial	 allStim	 ra
31	 6	 0	 x	 LineStimuli//allStim/stimNo131r0c0v3.8.jpg	 l	 1.995	 GoodTrial	 allStim	 ra
32	 6	 1	 right	 LineStimuli//allStim/stimNo90r3c15v1.5.jpg	 r	 1.771	 GoodTrial	 allStim	 ra
33	 6	 1	 right	 LineStimuli//allStim/stimNo95r5c21v3.8.jpg	 l	 1.625	 GoodTrial	 allStim	 ra
34	 6	 0	 x	 LineStimuli//allStim/stimNo139r0c0v1.8.jpg	 l	 2.847	 GoodTrial	 allStim	 ra
35	 6	 1	 right	 LineStimuli//allStim/stimNo101r12c16v2.8.jpg	 l	 1.705	 GoodTrial	 allStim	 ra
36	 6	 1	 left	 LineStimuli//allStim/stimNo96r15c4v1.5.jpg	 l	 2.761	 GoodTrial	 allStim	 ra
37	 6	 1	 right	 LineStimuli//allStim/stimNo118r4c17v2.3.jpg	 l	 1.533	 GoodTrial	 allStim	 ra
38	 6	 0	 x	 LineStimuli//allStim/stimNo141r0c0v1.5.jpg	 l	 1.858	 GoodTrial	 allStim	 ra
39	 6	 1	 left	 LineStimuli//allStim/stimNo98r3c8v4.3.jpg	 l	 1.607	 GoodTrial	 allStim	 ra
40	 6	 0	 x	 LineStimuli//allStim/stimNo143r0c0v1.5.jpg	 l	 2.645	 GoodTrial	 allStim	 ra
41	 6	 0	 x	 LineStimuli//allStim/stimNo132r0c0v3.3.jpg	 l	 2.121	 GoodTrial	 allStim	 ra
42	 6	 1	 right	 LineStimuli//allStim/stimNo109r7c17v1.8.jpg	 l	 1.581	 GoodTrial	 allStim	 ra
43	 6	 0	 x	 LineStimuli//allStim/stimNo122r0c0v3.8.jpg	 r	 1.776	 GoodTrial	 allStim	 ra
44	 6	 1	 right	 LineStimuli//allStim/stimNo94r6c17v3.8.jpg	 l	 1.705	 GoodTrial	 allStim	 ra
45	 6	 1	 left	 LineStimuli//allStim/stimNo94r13c7v2.8.jpg	 l	 1.746	 GoodTrial	 allStim	 ra
46	 6	 0	 x	 LineStimuli//allStim/stimNo129r0c0v2.8.jpg	 x	 3.010	 GoodTrial	 allStim	 ra
47	 6	 0	 x	 LineStimuli//allStim/stimNo156r0c0v2.3.jpg	 x	 0.441	 EARLY_RESPONSE	 allStim	 ra
48	 6	 0	 x	 LineStimuli//allStim/stimNo150r0c0v3.3.jpg	 x	 1.192	 GoodTrial	 allStim	 ra
49	 6	 0	 x	 LineStimuli//allStim/stimNo130r0c0v3.3.jpg	 r	 2.162	 GoodTrial	 allStim	 ra
50	 6	 0	 x	 LineStimuli//allStim/stimNo134r0c0v2.3.jpg	 r	 1.699	 GoodTrial	 allStim	 ra
1	 7	 1	 right	 LineStimuli//allStim/stimNo95r9c18v2.8.jpg	 l	 1.927	 GoodTrial	 allStim	 ra
2	 7	 1	 right	 LineStimuli//allStim/stimNo118r11c13v4.3.jpg	 l	 1.540	 GoodTrial	 allStim	 ra
3	 7	 0	 x	 LineStimuli//allStim/stimNo124r0c0v1.5.jpg	 r	 1.967	 GoodTrial	 allStim	 ra
4	 7	 1	 right	 LineStimuli//allStim/stimNo93r14c18v1.5.jpg	 r	 1.979	 GoodTrial	 allStim	 ra
5	 7	 0	 x	 LineStimuli//allStim/stimNo149r0c0v4.3.jpg	 x	 0.920	 EARLY_RESPONSE	 allStim	 ra
6	 7	 0	 x	 LineStimuli//allStim/stimNo156r0c0v3.3.jpg	 r	 1.858	 GoodTrial	 allStim	 ra
7	 7	 1	 right	 LineStimuli//allStim/stimNo92r6c21v3.8.jpg	 l	 1.608	 GoodTrial	 allStim	 ra
8	 7	 1	 right	 LineStimuli//allStim/stimNo92r14c21v2.8.jpg	 l	 2.100	 GoodTrial	 allStim	 ra
9	 7	 0	 x	 LineStimuli//allStim/stimNo158r0c0v2.3.jpg	 r	 2.177	 GoodTrial	 allStim	 ra
10	 7	 1	 left	 LineStimuli//allStim/stimNo110r7c3v1.5.jpg	 r	 1.969	 GoodTrial	 allStim	 ra
11	 7	 0	 x	 LineStimuli//allStim/stimNo157r0c0v2.3.jpg	 l	 1.517	 GoodTrial	 allStim	 ra
12	 7	 1	 left	 LineStimuli//allStim/stimNo113r11c7v4.3.jpg	 l	 1.764	 GoodTrial	 allStim	 ra
13	 7	 1	 left	 LineStimuli//allStim/stimNo113r14c9v3.8.jpg	 l	 1.584	 GoodTrial	 allStim	 ra
14	 7	 1	 right	 LineStimuli//allStim/stimNo112r6c15v1.8.jpg	 l	 1.639	 GoodTrial	 allStim	 ra
15	 7	 0	 x	 LineStimuli//allStim/stimNo158r0c0v3.3.jpg	 r	 1.880	 GoodTrial	 allStim	 ra
16	 7	 0	 x	 LineStimuli//allStim/stimNo155r0c0v1.8.jpg	 r	 2.967	 GoodTrial	 allStim	 ra
17	 7	 0	 x	 LineStimuli//allStim/stimNo146r0c0v3.8.jpg	 r	 1.805	 GoodTrial	 allStim	 ra
18	 7	 0	 x	 LineStimuli//allStim/stimNo141r0c0v3.3.jpg	 r	 1.668	 GoodTrial	 allStim	 ra
19	 7	 0	 x	 LineStimuli//allStim/stimNo123r0c0v2.3.jpg	 r	 1.850	 GoodTrial	 allStim	 ra
20	 7	 0	 x	 LineStimuli//allStim/stimNo145r0c0v3.3.jpg	 r	 1.673	 GoodTrial	 allStim	 ra
21	 7	 1	 left	 LineStimuli//allStim/stimNo89r12c4v2.8.jpg	 l	 1.627	 GoodTrial	 allStim	 ra
22	 7	 0	 x	 LineStimuli//allStim/stimNo132r0c0v3.3.jpg	 r	 2.284	 GoodTrial	 allStim	 ra
23	 7	 1	 right	 LineStimuli//allStim/stimNo103r3c19v2.8.jpg	 l	 1.680	 GoodTrial	 allStim	 ra
24	 7	 1	 right	 LineStimuli//allStim/stimNo83r6c13v1.8.jpg	 l	 1.823	 GoodTrial	 allStim	 ra
25	 7	 0	 x	 LineStimuli//allStim/stimNo137r0c0v3.8.jpg	 r	 1.938	 GoodTrial	 allStim	 ra
26	 7	 1	 right	 LineStimuli//allStim/stimNo112r5c15v3.3.jpg	 l	 1.549	 GoodTrial	 allStim	 ra
27	 7	 0	 x	 LineStimuli//allStim/stimNo129r0c0v2.8.jpg	 r	 3.015	 GoodTrial	 allStim	 ra
28	 7	 1	 left	 LineStimuli//allStim/stimNo91r14c4v1.8.jpg	 r	 1.883	 GoodTrial	 allStim	 ra
29	 7	 1	 right	 LineStimuli//allStim/stimNo104r3c21v1.8.jpg	 r	 3.101	 GoodTrial	 allStim	 ra
30	 7	 0	 x	 LineStimuli//allStim/stimNo148r0c0v3.3.jpg	 r	 1.664	 GoodTrial	 allStim	 ra
31	 7	 1	 right	 LineStimuli//allStim/stimNo115r9c14v2.8.jpg	 l	 2.611	 GoodTrial	 allStim	 ra
32	 7	 1	 right	 LineStimuli//allStim/stimNo85r4c15v2.3.jpg	 l	 1.574	 GoodTrial	 allStim	 ra
33	 7	 1	 left	 LineStimuli//allStim/stimNo119r3c2v2.3.jpg	 l	 1.892	 GoodTrial	 allStim	 ra
34	 7	 0	 x	 LineStimuli//allStim/stimNo138r0c0v3.8.jpg	 r	 1.686	 GoodTrial	 allStim	 ra
35	 7	 0	 x	 LineStimuli//allStim/stimNo139r0c0v4.3.jpg	 r	 1.505	 GoodTrial	 allStim	 ra
36	 7	 0	 x	 LineStimuli//allStim/stimNo124r0c0v2.3.jpg	 r	 1.707	 GoodTrial	 allStim	 ra
37	 7	 0	 x	 LineStimuli//allStim/stimNo127r0c0v1.5.jpg	 r	 1.706	 GoodTrial	 allStim	 ra
38	 7	 0	 x	 LineStimuli//allStim/stimNo139r0c0v2.8.jpg	 r	 1.568	 GoodTrial	 allStim	 ra
39	 7	 0	 x	 LineStimuli//allStim/stimNo154r0c0v1.8.jpg	 r	 1.792	 GoodTrial	 allStim	 ra
40	 7	 0	 x	 LineStimuli//allStim/stimNo121r0c0v3.3.jpg	 r	 1.935	 GoodTrial	 allStim	 ra
41	 7	 1	 left	 LineStimuli//allStim/stimNo115r5c9v1.8.jpg	 l	 1.758	 GoodTrial	 allStim	 ra
42	 7	 0	 x	 LineStimuli//allStim/stimNo132r0c0v1.5.jpg	 l	 2.460	 GoodTrial	 allStim	 ra
43	 7	 1	 left	 LineStimuli//allStim/stimNo112r3c2v2.3.jpg	 x	 1.224	 GoodTrial	 allStim	 ra
44	 7	 1	 left	 LineStimuli//allStim/stimNo83r14c4v2.3.jpg	 l	 2.283	 GoodTrial	 allStim	 ra
45	 7	 0	 x	 LineStimuli//allStim/stimNo126r0c0v1.5.jpg	 r	 2.832	 GoodTrial	 allStim	 ra
46	 7	 1	 left	 LineStimuli//allStim/stimNo82r12c4v2.3.jpg	 l	 1.627	 GoodTrial	 allStim	 ra
47	 7	 1	 left	 LineStimuli//allStim/stimNo108r13c2v3.3.jpg	 l	 16.776	 GoodTrial	 allStim	 ra
48	 7	 0	 x	 LineStimuli//allStim/stimNo153r0c0v1.8.jpg	 l	 2.997	 GoodTrial	 allStim	 ra
49	 7	 0	 x	 LineStimuli//allStim/stimNo128r0c0v3.3.jpg	 r	 2.024	 GoodTrial	 allStim	 ra
50	 7	 1	 left	 LineStimuli//allStim/stimNo117r11c8v2.3.jpg	 l	 1.614	 GoodTrial	 allStim	 ra
