Trial	Block	Target_pr	Target_side	Name	Key	RT	Message	Block_Type	Condition
1	 1	 1	 left	 LineStimuli//allStim/stimNo105r6c5v1.8.jpg	 r	 36.339	 GoodTrial	 allStim	 ra
2	 1	 1	 left	 LineStimuli//allStim/stimNo116r4c7v2.8.jpg	 r	 28.258	 GoodTrial	 allStim	 ra
3	 1	 0	 x	 LineStimuli//allStim/stimNo145r0c0v3.8.jpg	 r	 26.281	 GoodTrial	 allStim	 ra
4	 1	 1	 left	 LineStimuli//allStim/stimNo90r2c9v3.3.jpg	 l	 4.920	 GoodTrial	 allStim	 ra
5	 1	 0	 x	 LineStimuli//allStim/stimNo122r0c0v3.8.jpg	 r	 31.203	 GoodTrial	 allStim	 ra
6	 1	 1	 left	 LineStimuli//allStim/stimNo104r8c6v2.8.jpg	 r	 25.336	 GoodTrial	 allStim	 ra
7	 1	 0	 x	 LineStimuli//allStim/stimNo146r0c0v3.8.jpg	 r	 20.843	 GoodTrial	 allStim	 ra
8	 1	 0	 x	 LineStimuli//allStim/stimNo155r0c0v3.8.jpg	 r	 28.603	 GoodTrial	 allStim	 ra
9	 1	 1	 left	 LineStimuli//allStim/stimNo119r15c7v3.3.jpg	 l	 33.756	 GoodTrial	 allStim	 ra
10	 1	 1	 right	 LineStimuli//allStim/stimNo100r9c13v1.8.jpg	 l	 35.115	 GoodTrial	 allStim	 ra
11	 1	 1	 left	 LineStimuli//allStim/stimNo113r3c8v2.3.jpg	 r	 41.081	 GoodTrial	 allStim	 ra
12	 1	 0	 x	 LineStimuli//allStim/stimNo137r0c0v3.8.jpg	 r	 34.977	 GoodTrial	 allStim	 ra
13	 1	 0	 x	 LineStimuli//allStim/stimNo143r0c0v1.8.jpg	 r	 41.765	 GoodTrial	 allStim	 ra
14	 1	 1	 right	 LineStimuli//allStim/stimNo101r5c20v1.5.jpg	 l	 3.760	 GoodTrial	 allStim	 ra
15	 1	 1	 left	 LineStimuli//allStim/stimNo100r8c3v4.3.jpg	 l	 13.657	 GoodTrial	 allStim	 ra
16	 1	 0	 x	 LineStimuli//allStim/stimNo139r0c0v1.8.jpg	 r	 23.290	 GoodTrial	 allStim	 ra
17	 1	 0	 x	 LineStimuli//allStim/stimNo126r0c0v1.8.jpg	 r	 31.727	 GoodTrial	 allStim	 ra
18	 1	 0	 x	 LineStimuli//allStim/stimNo125r0c0v2.8.jpg	 r	 9.729	 GoodTrial	 allStim	 ra
19	 1	 1	 right	 LineStimuli//allStim/stimNo114r10c15v4.3.jpg	 l	 2.699	 GoodTrial	 allStim	 ra
20	 1	 1	 right	 LineStimuli//allStim/stimNo84r3c18v1.5.jpg	 l	 4.768	 GoodTrial	 allStim	 ra
21	 1	 1	 left	 LineStimuli//allStim/stimNo113r6c7v1.8.jpg	 r	 14.952	 GoodTrial	 allStim	 ra
22	 1	 0	 x	 LineStimuli//allStim/stimNo147r0c0v2.8.jpg	 r	 16.169	 GoodTrial	 allStim	 ra
23	 1	 0	 x	 LineStimuli//allStim/stimNo150r0c0v3.3.jpg	 r	 18.197	 GoodTrial	 allStim	 ra
24	 1	 0	 x	 LineStimuli//allStim/stimNo136r0c0v4.3.jpg	 r	 9.535	 GoodTrial	 allStim	 ra
25	 1	 0	 x	 LineStimuli//allStim/stimNo127r0c0v2.8.jpg	 r	 22.663	 GoodTrial	 allStim	 ra
26	 1	 0	 x	 LineStimuli//allStim/stimNo148r0c0v4.3.jpg	 r	 24.167	 GoodTrial	 allStim	 ra
27	 1	 0	 x	 LineStimuli//allStim/stimNo155r0c0v3.3.jpg	 r	 20.420	 GoodTrial	 allStim	 ra
28	 1	 1	 right	 LineStimuli//allStim/stimNo84r15c20v4.3.jpg	 l	 3.043	 GoodTrial	 allStim	 ra
29	 1	 0	 x	 LineStimuli//allStim/stimNo148r0c0v2.3.jpg	 r	 15.817	 GoodTrial	 allStim	 ra
30	 1	 1	 left	 LineStimuli//allStim/stimNo120r5c3v3.8.jpg	 l	 4.963	 GoodTrial	 allStim	 ra
31	 1	 1	 right	 LineStimuli//allStim/stimNo84r15c14v2.3.jpg	 l	 3.334	 GoodTrial	 allStim	 ra
32	 1	 0	 x	 LineStimuli//allStim/stimNo153r0c0v2.3.jpg	 r	 16.178	 GoodTrial	 allStim	 ra
33	 1	 1	 right	 LineStimuli//allStim/stimNo93r14c18v1.5.jpg	 l	 10.143	 GoodTrial	 allStim	 ra
34	 1	 1	 left	 LineStimuli//allStim/stimNo94r8c9v2.3.jpg	 l	 9.250	 GoodTrial	 allStim	 ra
35	 1	 1	 right	 LineStimuli//allStim/stimNo106r13c20v2.8.jpg	 l	 5.575	 GoodTrial	 allStim	 ra
36	 1	 1	 left	 LineStimuli//allStim/stimNo101r5c5v4.3.jpg	 l	 2.372	 GoodTrial	 allStim	 ra
37	 1	 1	 right	 LineStimuli//allStim/stimNo108r13c15v1.5.jpg	 r	 15.814	 GoodTrial	 allStim	 ra
38	 1	 1	 right	 LineStimuli//allStim/stimNo104r5c18v1.5.jpg	 l	 6.156	 GoodTrial	 allStim	 ra
39	 1	 0	 x	 LineStimuli//allStim/stimNo123r0c0v4.3.jpg	 r	 13.472	 GoodTrial	 allStim	 ra
40	 1	 0	 x	 LineStimuli//allStim/stimNo143r0c0v3.8.jpg	 r	 21.549	 GoodTrial	 allStim	 ra
41	 1	 0	 x	 LineStimuli//allStim/stimNo130r0c0v4.3.jpg	 r	 6.384	 GoodTrial	 allStim	 ra
42	 1	 1	 right	 LineStimuli//allStim/stimNo101r12c17v3.8.jpg	 l	 2.420	 GoodTrial	 allStim	 ra
43	 1	 0	 x	 LineStimuli//allStim/stimNo150r0c0v1.5.jpg	 r	 10.632	 GoodTrial	 allStim	 ra
44	 1	 0	 x	 LineStimuli//allStim/stimNo142r0c0v3.3.jpg	 r	 14.149	 GoodTrial	 allStim	 ra
45	 1	 1	 right	 LineStimuli//allStim/stimNo85r3c13v3.8.jpg	 l	 2.804	 GoodTrial	 allStim	 ra
46	 1	 0	 x	 LineStimuli//allStim/stimNo154r0c0v3.3.jpg	 r	 7.627	 GoodTrial	 allStim	 ra
47	 1	 0	 x	 LineStimuli//allStim/stimNo149r0c0v2.8.jpg	 r	 11.384	 GoodTrial	 allStim	 ra
48	 1	 1	 right	 LineStimuli//allStim/stimNo117r11c17v2.8.jpg	 l	 3.337	 GoodTrial	 allStim	 ra
49	 1	 0	 x	 LineStimuli//allStim/stimNo137r0c0v1.8.jpg	 r	 12.194	 GoodTrial	 allStim	 ra
50	 1	 1	 right	 LineStimuli//allStim/stimNo99r12c16v1.8.jpg	 r	 15.584	 GoodTrial	 allStim	 ra
1	 2	 0	 x	 LineStimuli//allStim/stimNo132r0c0v1.5.jpg	 r	 8.719	 GoodTrial	 allStim	 ra
2	 2	 1	 left	 LineStimuli//allStim/stimNo101r5c5v4.3.jpg	 l	 2.312	 GoodTrial	 allStim	 ra
3	 2	 0	 x	 LineStimuli//allStim/stimNo152r0c0v1.5.jpg	 r	 7.263	 GoodTrial	 allStim	 ra
4	 2	 0	 x	 LineStimuli//allStim/stimNo121r0c0v4.3.jpg	 r	 7.172	 GoodTrial	 allStim	 ra
5	 2	 0	 x	 LineStimuli//allStim/stimNo123r0c0v1.5.jpg	 r	 9.008	 GoodTrial	 allStim	 ra
6	 2	 1	 right	 LineStimuli//allStim/stimNo93r14c18v1.5.jpg	 r	 8.380	 GoodTrial	 allStim	 ra
7	 2	 1	 left	 LineStimuli//allStim/stimNo84r3c9v2.8.jpg	 l	 2.456	 GoodTrial	 allStim	 ra
8	 2	 1	 left	 LineStimuli//allStim/stimNo116r4c7v1.8.jpg	 r	 16.150	 GoodTrial	 allStim	 ra
9	 2	 0	 x	 LineStimuli//allStim/stimNo156r0c0v4.3.jpg	 r	 6.319	 GoodTrial	 allStim	 ra
10	 2	 1	 right	 LineStimuli//allStim/stimNo93r9c20v2.8.jpg	 l	 3.136	 GoodTrial	 allStim	 ra
11	 2	 0	 x	 LineStimuli//allStim/stimNo150r0c0v2.8.jpg	 r	 11.158	 GoodTrial	 allStim	 ra
12	 2	 1	 right	 LineStimuli//allStim/stimNo101r12c16v2.8.jpg	 l	 2.343	 GoodTrial	 allStim	 ra
13	 2	 0	 x	 LineStimuli//allStim/stimNo152r0c0v3.3.jpg	 r	 4.623	 GoodTrial	 allStim	 ra
14	 2	 1	 right	 LineStimuli//allStim/stimNo101r5c20v1.5.jpg	 r	 8.185	 GoodTrial	 allStim	 ra
15	 2	 0	 x	 LineStimuli//allStim/stimNo142r0c0v1.8.jpg	 r	 10.504	 GoodTrial	 allStim	 ra
16	 2	 1	 left	 LineStimuli//allStim/stimNo113r3c8v2.3.jpg	 l	 2.369	 GoodTrial	 allStim	 ra
17	 2	 1	 left	 LineStimuli//allStim/stimNo118r4c8v3.8.jpg	 l	 2.240	 GoodTrial	 allStim	 ra
18	 2	 1	 right	 LineStimuli//allStim/stimNo99r2c13v2.3.jpg	 l	 5.114	 GoodTrial	 allStim	 ra
19	 2	 0	 x	 LineStimuli//allStim/stimNo136r0c0v4.3.jpg	 r	 5.675	 GoodTrial	 allStim	 ra
20	 2	 0	 x	 LineStimuli//allStim/stimNo121r0c0v1.8.jpg	 r	 11.262	 GoodTrial	 allStim	 ra
21	 2	 1	 left	 LineStimuli//allStim/stimNo94r13c7v2.8.jpg	 l	 3.644	 GoodTrial	 allStim	 ra
22	 2	 1	 left	 LineStimuli//allStim/stimNo110r7c3v1.5.jpg	 r	 9.380	 GoodTrial	 allStim	 ra
23	 2	 0	 x	 LineStimuli//allStim/stimNo156r0c0v2.3.jpg	 r	 7.870	 GoodTrial	 allStim	 ra
24	 2	 0	 x	 LineStimuli//allStim/stimNo124r0c0v4.3.jpg	 r	 6.679	 GoodTrial	 allStim	 ra
25	 2	 0	 x	 LineStimuli//allStim/stimNo145r0c0v3.3.jpg	 r	 8.997	 GoodTrial	 allStim	 ra
26	 2	 0	 x	 LineStimuli//allStim/stimNo132r0c0v1.8.jpg	 r	 7.915	 GoodTrial	 allStim	 ra
27	 2	 0	 x	 LineStimuli//allStim/stimNo135r0c0v2.8.jpg	 r	 11.760	 GoodTrial	 allStim	 ra
28	 2	 0	 x	 LineStimuli//allStim/stimNo153r0c0v2.3.jpg	 r	 13.585	 GoodTrial	 allStim	 ra
29	 2	 0	 x	 LineStimuli//allStim/stimNo131r0c0v1.8.jpg	 r	 8.134	 GoodTrial	 allStim	 ra
30	 2	 1	 right	 LineStimuli//allStim/stimNo118r5c16v2.8.jpg	 l	 2.511	 GoodTrial	 allStim	 ra
31	 2	 1	 right	 LineStimuli//allStim/stimNo112r5c15v3.3.jpg	 l	 2.296	 GoodTrial	 allStim	 ra
32	 2	 1	 right	 LineStimuli//allStim/stimNo115r9c14v2.8.jpg	 l	 2.729	 GoodTrial	 allStim	 ra
33	 2	 1	 right	 LineStimuli//allStim/stimNo81r8c14v2.8.jpg	 l	 2.560	 GoodTrial	 allStim	 ra
34	 2	 1	 right	 LineStimuli//allStim/stimNo114r10c14v3.8.jpg	 l	 2.233	 GoodTrial	 allStim	 ra
35	 2	 1	 left	 LineStimuli//allStim/stimNo108r13c6v2.8.jpg	 l	 3.425	 GoodTrial	 allStim	 ra
36	 2	 0	 x	 LineStimuli//allStim/stimNo150r0c0v3.3.jpg	 r	 7.780	 GoodTrial	 allStim	 ra
37	 2	 0	 x	 LineStimuli//allStim/stimNo123r0c0v3.8.jpg	 r	 7.174	 GoodTrial	 allStim	 ra
38	 2	 1	 left	 LineStimuli//allStim/stimNo117r2c5v3.3.jpg	 l	 3.479	 GoodTrial	 allStim	 ra
39	 2	 0	 x	 LineStimuli//allStim/stimNo149r0c0v1.5.jpg	 r	 15.632	 GoodTrial	 allStim	 ra
40	 2	 1	 left	 LineStimuli//allStim/stimNo96r6c9v2.8.jpg	 l	 2.212	 GoodTrial	 allStim	 ra
41	 2	 0	 x	 LineStimuli//allStim/stimNo145r0c0v1.8.jpg	 r	 6.621	 GoodTrial	 allStim	 ra
42	 2	 1	 right	 LineStimuli//allStim/stimNo111r4c21v1.8.jpg	 r	 4.642	 GoodTrial	 allStim	 ra
43	 2	 0	 x	 LineStimuli//allStim/stimNo146r0c0v3.3.jpg	 r	 6.233	 GoodTrial	 allStim	 ra
44	 2	 0	 x	 LineStimuli//allStim/stimNo126r0c0v3.3.jpg	 r	 8.588	 GoodTrial	 allStim	 ra
45	 2	 1	 right	 LineStimuli//allStim/stimNo93r4c16v2.3.jpg	 l	 2.692	 GoodTrial	 allStim	 ra
46	 2	 1	 left	 LineStimuli//allStim/stimNo115r14c10v3.8.jpg	 l	 2.809	 GoodTrial	 allStim	 ra
47	 2	 0	 x	 LineStimuli//allStim/stimNo159r0c0v2.8.jpg	 r	 7.168	 GoodTrial	 allStim	 ra
48	 2	 0	 x	 LineStimuli//allStim/stimNo128r0c0v2.8.jpg	 r	 11.009	 GoodTrial	 allStim	 ra
49	 2	 0	 x	 LineStimuli//allStim/stimNo121r0c0v2.3.jpg	 r	 5.543	 GoodTrial	 allStim	 ra
50	 2	 0	 x	 LineStimuli//allStim/stimNo132r0c0v3.8.jpg	 r	 9.352	 GoodTrial	 allStim	 ra
1	 3	 1	 right	 LineStimuli//allStim/stimNo97r15c18v1.8.jpg	 r	 8.623	 GoodTrial	 allStim	 ra
2	 3	 1	 right	 LineStimuli//allStim/stimNo102r6c18v2.3.jpg	 l	 2.515	 GoodTrial	 allStim	 ra
3	 3	 0	 x	 LineStimuli//allStim/stimNo140r0c0v3.3.jpg	 r	 5.800	 GoodTrial	 allStim	 ra
4	 3	 1	 left	 LineStimuli//allStim/stimNo98r3c8v4.3.jpg	 l	 2.145	 GoodTrial	 allStim	 ra
5	 3	 0	 x	 LineStimuli//allStim/stimNo153r0c0v2.3.jpg	 r	 4.625	 GoodTrial	 allStim	 ra
6	 3	 0	 x	 LineStimuli//allStim/stimNo160r0c0v3.3.jpg	 r	 7.859	 GoodTrial	 allStim	 ra
7	 3	 1	 left	 LineStimuli//allStim/stimNo85r6c4v3.3.jpg	 l	 2.240	 GoodTrial	 allStim	 ra
8	 3	 1	 left	 LineStimuli//allStim/stimNo91r9c3v1.5.jpg	 r	 7.783	 GoodTrial	 allStim	 ra
9	 3	 1	 left	 LineStimuli//allStim/stimNo102r3c2v2.8.jpg	 l	 2.291	 GoodTrial	 allStim	 ra
10	 3	 0	 x	 LineStimuli//allStim/stimNo135r0c0v1.5.jpg	 r	 5.839	 GoodTrial	 allStim	 ra
11	 3	 0	 x	 LineStimuli//allStim/stimNo150r0c0v1.5.jpg	 l	 11.372	 GoodTrial	 allStim	 ra
12	 3	 0	 x	 LineStimuli//allStim/stimNo131r0c0v2.3.jpg	 r	 8.498	 GoodTrial	 allStim	 ra
13	 3	 0	 x	 LineStimuli//allStim/stimNo126r0c0v1.8.jpg	 r	 4.423	 GoodTrial	 allStim	 ra
14	 3	 0	 x	 LineStimuli//allStim/stimNo124r0c0v2.3.jpg	 r	 9.766	 GoodTrial	 allStim	 ra
15	 3	 1	 left	 LineStimuli//allStim/stimNo109r8c6v1.5.jpg	 r	 10.217	 GoodTrial	 allStim	 ra
16	 3	 1	 right	 LineStimuli//allStim/stimNo116r5c13v4.3.jpg	 l	 2.760	 GoodTrial	 allStim	 ra
17	 3	 0	 x	 LineStimuli//allStim/stimNo140r0c0v3.8.jpg	 r	 4.941	 GoodTrial	 allStim	 ra
18	 3	 1	 left	 LineStimuli//allStim/stimNo108r13c6v2.8.jpg	 l	 2.624	 GoodTrial	 allStim	 ra
19	 3	 1	 right	 LineStimuli//allStim/stimNo93r14c18v1.5.jpg	 l	 2.939	 GoodTrial	 allStim	 ra
20	 3	 0	 x	 LineStimuli//allStim/stimNo137r0c0v1.5.jpg	 r	 6.948	 GoodTrial	 allStim	 ra
21	 3	 0	 x	 LineStimuli//allStim/stimNo133r0c0v2.8.jpg	 r	 7.627	 GoodTrial	 allStim	 ra
22	 3	 0	 x	 LineStimuli//allStim/stimNo121r0c0v2.3.jpg	 r	 3.761	 GoodTrial	 allStim	 ra
23	 3	 0	 x	 LineStimuli//allStim/stimNo139r0c0v1.8.jpg	 r	 3.343	 GoodTrial	 allStim	 ra
24	 3	 0	 x	 LineStimuli//allStim/stimNo125r0c0v2.8.jpg	 r	 7.844	 GoodTrial	 allStim	 ra
25	 3	 1	 right	 LineStimuli//allStim/stimNo92r6c18v1.5.jpg	 r	 10.423	 GoodTrial	 allStim	 ra
26	 3	 1	 right	 LineStimuli//allStim/stimNo102r14c17v1.8.jpg	 l	 10.679	 GoodTrial	 allStim	 ra
27	 3	 0	 x	 LineStimuli//allStim/stimNo147r0c0v1.5.jpg	 r	 14.273	 GoodTrial	 allStim	 ra
28	 3	 0	 x	 LineStimuli//allStim/stimNo142r0c0v2.8.jpg	 r	 7.925	 GoodTrial	 allStim	 ra
29	 3	 0	 x	 LineStimuli//allStim/stimNo144r0c0v4.3.jpg	 r	 5.046	 GoodTrial	 allStim	 ra
30	 3	 1	 right	 LineStimuli//allStim/stimNo112r12c16v3.8.jpg	 l	 2.393	 GoodTrial	 allStim	 ra
31	 3	 0	 x	 LineStimuli//allStim/stimNo146r0c0v1.5.jpg	 r	 8.266	 GoodTrial	 allStim	 ra
32	 3	 0	 x	 LineStimuli//allStim/stimNo154r0c0v1.8.jpg	 r	 6.060	 GoodTrial	 allStim	 ra
33	 3	 0	 x	 LineStimuli//allStim/stimNo151r0c0v2.3.jpg	 r	 12.304	 GoodTrial	 allStim	 ra
34	 3	 1	 right	 LineStimuli//allStim/stimNo82r11c20v3.3.jpg	 l	 2.558	 GoodTrial	 allStim	 ra
35	 3	 0	 x	 LineStimuli//allStim/stimNo155r0c0v2.3.jpg	 r	 4.007	 GoodTrial	 allStim	 ra
36	 3	 1	 left	 LineStimuli//allStim/stimNo94r13c8v1.8.jpg	 r	 8.475	 GoodTrial	 allStim	 ra
37	 3	 1	 left	 LineStimuli//allStim/stimNo88r15c9v1.8.jpg	 r	 9.779	 GoodTrial	 allStim	 ra
38	 3	 0	 x	 LineStimuli//allStim/stimNo139r0c0v3.3.jpg	 r	 8.263	 GoodTrial	 allStim	 ra
39	 3	 1	 left	 LineStimuli//allStim/stimNo89r12c4v2.8.jpg	 l	 3.531	 GoodTrial	 allStim	 ra
40	 3	 0	 x	 LineStimuli//allStim/stimNo124r0c0v3.8.jpg	 r	 3.656	 GoodTrial	 allStim	 ra
41	 3	 1	 right	 LineStimuli//allStim/stimNo92r6c21v3.8.jpg	 l	 2.383	 GoodTrial	 allStim	 ra
42	 3	 1	 right	 LineStimuli//allStim/stimNo117r6c17v3.8.jpg	 l	 2.403	 GoodTrial	 allStim	 ra
43	 3	 0	 x	 LineStimuli//allStim/stimNo138r0c0v2.8.jpg	 r	 6.304	 GoodTrial	 allStim	 ra
44	 3	 1	 left	 LineStimuli//allStim/stimNo116r2c2v2.3.jpg	 r	 8.555	 GoodTrial	 allStim	 ra
45	 3	 0	 x	 LineStimuli//allStim/stimNo157r0c0v3.8.jpg	 r	 7.757	 GoodTrial	 allStim	 ra
46	 3	 0	 x	 LineStimuli//allStim/stimNo135r0c0v4.3.jpg	 r	 5.193	 GoodTrial	 allStim	 ra
47	 3	 0	 x	 LineStimuli//allStim/stimNo151r0c0v1.8.jpg	 r	 10.614	 GoodTrial	 allStim	 ra
48	 3	 1	 right	 LineStimuli//allStim/stimNo114r10c15v4.3.jpg	 l	 2.288	 GoodTrial	 allStim	 ra
49	 3	 0	 x	 LineStimuli//allStim/stimNo156r0c0v4.3.jpg	 r	 3.653	 GoodTrial	 allStim	 ra
50	 3	 0	 x	 LineStimuli//allStim/stimNo145r0c0v1.8.jpg	 r	 9.649	 GoodTrial	 allStim	 ra
1	 4	 1	 left	 LineStimuli//allStim/stimNo93r8c2v3.8.jpg	 l	 2.569	 GoodTrial	 allStim	 ra
2	 4	 0	 x	 LineStimuli//allStim/stimNo151r0c0v4.3.jpg	 r	 4.422	 GoodTrial	 allStim	 ra
3	 4	 1	 right	 LineStimuli//allStim/stimNo101r8c14v2.3.jpg	 l	 2.943	 GoodTrial	 allStim	 ra
4	 4	 0	 x	 LineStimuli//allStim/stimNo124r0c0v2.8.jpg	 r	 13.240	 GoodTrial	 allStim	 ra
5	 4	 0	 x	 LineStimuli//allStim/stimNo143r0c0v2.8.jpg	 r	 4.320	 GoodTrial	 allStim	 ra
6	 4	 0	 x	 LineStimuli//allStim/stimNo139r0c0v3.3.jpg	 r	 11.459	 GoodTrial	 allStim	 ra
7	 4	 0	 x	 LineStimuli//allStim/stimNo137r0c0v2.3.jpg	 r	 6.397	 GoodTrial	 allStim	 ra
8	 4	 0	 x	 LineStimuli//allStim/stimNo128r0c0v3.3.jpg	 r	 6.838	 GoodTrial	 allStim	 ra
9	 4	 0	 x	 LineStimuli//allStim/stimNo141r0c0v3.8.jpg	 r	 9.236	 GoodTrial	 allStim	 ra
10	 4	 0	 x	 LineStimuli//allStim/stimNo150r0c0v4.3.jpg	 r	 5.164	 GoodTrial	 allStim	 ra
11	 4	 0	 x	 LineStimuli//allStim/stimNo152r0c0v2.8.jpg	 r	 5.792	 GoodTrial	 allStim	 ra
12	 4	 0	 x	 LineStimuli//allStim/stimNo158r0c0v1.8.jpg	 r	 5.830	 GoodTrial	 allStim	 ra
13	 4	 1	 right	 LineStimuli//allStim/stimNo91r10c16v3.8.jpg	 l	 2.404	 GoodTrial	 allStim	 ra
14	 4	 0	 x	 LineStimuli//allStim/stimNo128r0c0v1.8.jpg	 r	 5.416	 GoodTrial	 allStim	 ra
15	 4	 1	 left	 LineStimuli//allStim/stimNo109r11c8v3.8.jpg	 l	 2.374	 GoodTrial	 allStim	 ra
16	 4	 1	 left	 LineStimuli//allStim/stimNo86r7c3v4.3.jpg	 l	 2.280	 GoodTrial	 allStim	 ra
17	 4	 0	 x	 LineStimuli//allStim/stimNo133r0c0v3.3.jpg	 r	 5.032	 GoodTrial	 allStim	 ra
18	 4	 0	 x	 LineStimuli//allStim/stimNo159r0c0v1.5.jpg	 r	 8.503	 GoodTrial	 allStim	 ra
19	 4	 0	 x	 LineStimuli//allStim/stimNo145r0c0v2.3.jpg	 r	 5.774	 GoodTrial	 allStim	 ra
20	 4	 1	 left	 LineStimuli//allStim/stimNo96r6c9v2.8.jpg	 l	 2.249	 GoodTrial	 allStim	 ra
21	 4	 1	 left	 LineStimuli//allStim/stimNo87r11c8v2.8.jpg	 l	 2.560	 GoodTrial	 allStim	 ra
22	 4	 1	 right	 LineStimuli//allStim/stimNo110r15c19v2.3.jpg	 l	 2.980	 GoodTrial	 allStim	 ra
23	 4	 1	 left	 LineStimuli//allStim/stimNo82r4c6v2.8.jpg	 l	 2.170	 GoodTrial	 allStim	 ra
24	 4	 1	 left	 LineStimuli//allStim/stimNo103r6c6v3.3.jpg	 l	 2.182	 GoodTrial	 allStim	 ra
25	 4	 1	 right	 LineStimuli//allStim/stimNo112r13c17v2.8.jpg	 l	 2.149	 GoodTrial	 allStim	 ra
26	 4	 0	 x	 LineStimuli//allStim/stimNo121r0c0v1.8.jpg	 r	 17.701	 GoodTrial	 allStim	 ra
27	 4	 1	 right	 LineStimuli//allStim/stimNo90r13c21v2.8.jpg	 l	 2.312	 GoodTrial	 allStim	 ra
28	 4	 1	 right	 LineStimuli//allStim/stimNo92r6c21v3.8.jpg	 l	 2.323	 GoodTrial	 allStim	 ra
29	 4	 0	 x	 LineStimuli//allStim/stimNo130r0c0v1.8.jpg	 r	 9.516	 GoodTrial	 allStim	 ra
30	 4	 1	 left	 LineStimuli//allStim/stimNo90r2c9v3.3.jpg	 l	 2.208	 GoodTrial	 allStim	 ra
31	 4	 0	 x	 LineStimuli//allStim/stimNo141r0c0v3.3.jpg	 r	 2.873	 GoodTrial	 allStim	 ra
32	 4	 0	 x	 LineStimuli//allStim/stimNo150r0c0v3.3.jpg	 r	 4.164	 GoodTrial	 allStim	 ra
33	 4	 1	 right	 LineStimuli//allStim/stimNo93r9c20v2.8.jpg	 l	 2.370	 GoodTrial	 allStim	 ra
34	 4	 0	 x	 LineStimuli//allStim/stimNo154r0c0v2.8.jpg	 r	 5.460	 GoodTrial	 allStim	 ra
35	 4	 0	 x	 LineStimuli//allStim/stimNo133r0c0v3.8.jpg	 r	 2.899	 GoodTrial	 allStim	 ra
36	 4	 1	 right	 LineStimuli//allStim/stimNo85r3c13v3.8.jpg	 l	 2.197	 GoodTrial	 allStim	 ra
37	 4	 1	 left	 LineStimuli//allStim/stimNo86r8c9v2.3.jpg	 r	 3.919	 GoodTrial	 allStim	 ra
38	 4	 0	 x	 LineStimuli//allStim/stimNo128r0c0v1.5.jpg	 l	 13.882	 GoodTrial	 allStim	 ra
39	 4	 0	 x	 LineStimuli//allStim/stimNo127r0c0v4.3.jpg	 r	 3.218	 GoodTrial	 allStim	 ra
40	 4	 1	 right	 LineStimuli//allStim/stimNo119r3c21v1.8.jpg	 r	 4.465	 GoodTrial	 allStim	 ra
41	 4	 1	 left	 LineStimuli//allStim/stimNo105r2c6v3.8.jpg	 l	 2.291	 GoodTrial	 allStim	 ra
42	 4	 0	 x	 LineStimuli//allStim/stimNo152r0c0v3.8.jpg	 r	 3.924	 GoodTrial	 allStim	 ra
43	 4	 1	 right	 LineStimuli//allStim/stimNo105r14c14v2.3.jpg	 l	 5.014	 GoodTrial	 allStim	 ra
44	 4	 1	 right	 LineStimuli//allStim/stimNo88r10c17v3.8.jpg	 l	 2.760	 GoodTrial	 allStim	 ra
45	 4	 0	 x	 LineStimuli//allStim/stimNo131r0c0v2.3.jpg	 r	 4.296	 GoodTrial	 allStim	 ra
46	 4	 0	 x	 LineStimuli//allStim/stimNo140r0c0v2.8.jpg	 l	 3.885	 GoodTrial	 allStim	 ra
47	 4	 0	 x	 LineStimuli//allStim/stimNo159r0c0v3.8.jpg	 r	 4.581	 GoodTrial	 allStim	 ra
48	 4	 0	 x	 LineStimuli//allStim/stimNo138r0c0v1.8.jpg	 r	 5.100	 GoodTrial	 allStim	 ra
49	 4	 1	 left	 LineStimuli//allStim/stimNo113r9c5v2.8.jpg	 l	 2.473	 GoodTrial	 allStim	 ra
50	 4	 0	 x	 LineStimuli//allStim/stimNo159r0c0v1.8.jpg	 r	 4.645	 GoodTrial	 allStim	 ra
1	 5	 0	 x	 LineStimuli//allStim/stimNo124r0c0v1.5.jpg	 r	 8.137	 GoodTrial	 allStim	 ra
2	 5	 0	 x	 LineStimuli//allStim/stimNo160r0c0v1.5.jpg	 r	 4.838	 GoodTrial	 allStim	 ra
3	 5	 0	 x	 LineStimuli//allStim/stimNo145r0c0v1.5.jpg	 r	 4.957	 GoodTrial	 allStim	 ra
4	 5	 0	 x	 LineStimuli//allStim/stimNo146r0c0v1.5.jpg	 r	 4.612	 GoodTrial	 allStim	 ra
5	 5	 0	 x	 LineStimuli//allStim/stimNo134r0c0v2.3.jpg	 r	 9.315	 GoodTrial	 allStim	 ra
6	 5	 1	 left	 LineStimuli//allStim/stimNo119r3c2v2.3.jpg	 l	 2.604	 GoodTrial	 allStim	 ra
7	 5	 0	 x	 LineStimuli//allStim/stimNo142r0c0v3.3.jpg	 r	 3.888	 GoodTrial	 allStim	 ra
8	 5	 1	 right	 LineStimuli//allStim/stimNo92r2c20v4.3.jpg	 l	 2.522	 GoodTrial	 allStim	 ra
9	 5	 0	 x	 LineStimuli//allStim/stimNo134r0c0v2.8.jpg	 r	 3.842	 GoodTrial	 allStim	 ra
10	 5	 1	 left	 LineStimuli//allStim/stimNo113r4c4v1.5.jpg	 l	 2.952	 GoodTrial	 allStim	 ra
11	 5	 0	 x	 LineStimuli//allStim/stimNo130r0c0v2.3.jpg	 r	 6.702	 GoodTrial	 allStim	 ra
12	 5	 1	 right	 LineStimuli//allStim/stimNo117r10c16v1.8.jpg	 r	 4.347	 GoodTrial	 allStim	 ra
13	 5	 1	 right	 LineStimuli//allStim/stimNo92r10c18v1.8.jpg	 r	 6.468	 GoodTrial	 allStim	 ra
14	 5	 1	 left	 LineStimuli//allStim/stimNo90r2c9v3.3.jpg	 l	 3.106	 GoodTrial	 allStim	 ra
15	 5	 0	 x	 LineStimuli//allStim/stimNo149r0c0v1.8.jpg	 r	 6.496	 GoodTrial	 allStim	 ra
16	 5	 0	 x	 LineStimuli//allStim/stimNo140r0c0v3.8.jpg	 r	 4.043	 GoodTrial	 allStim	 ra
17	 5	 1	 left	 LineStimuli//allStim/stimNo108r15c6v2.3.jpg	 l	 7.136	 GoodTrial	 allStim	 ra
18	 5	 0	 x	 LineStimuli//allStim/stimNo137r0c0v1.8.jpg	 r	 14.467	 GoodTrial	 allStim	 ra
19	 5	 0	 x	 LineStimuli//allStim/stimNo127r0c0v1.8.jpg	 r	 6.602	 GoodTrial	 allStim	 ra
20	 5	 1	 right	 LineStimuli//allStim/stimNo104r3c21v1.8.jpg	 l	 3.261	 GoodTrial	 allStim	 ra
21	 5	 0	 x	 LineStimuli//allStim/stimNo151r0c0v3.8.jpg	 r	 4.180	 GoodTrial	 allStim	 ra
22	 5	 1	 right	 LineStimuli//allStim/stimNo112r6c15v1.8.jpg	 l	 2.415	 GoodTrial	 allStim	 ra
23	 5	 0	 x	 LineStimuli//allStim/stimNo131r0c0v2.3.jpg	 r	 6.537	 GoodTrial	 allStim	 ra
24	 5	 0	 x	 LineStimuli//allStim/stimNo133r0c0v2.8.jpg	 r	 4.330	 GoodTrial	 allStim	 ra
25	 5	 1	 right	 LineStimuli//allStim/stimNo90r3c15v1.5.jpg	 r	 10.712	 GoodTrial	 allStim	 ra
26	 5	 1	 left	 LineStimuli//allStim/stimNo97r3c3v2.3.jpg	 l	 2.446	 GoodTrial	 allStim	 ra
27	 5	 0	 x	 LineStimuli//allStim/stimNo154r0c0v3.3.jpg	 r	 2.829	 GoodTrial	 allStim	 ra
28	 5	 0	 x	 LineStimuli//allStim/stimNo158r0c0v3.8.jpg	 r	 4.561	 GoodTrial	 allStim	 ra
29	 5	 0	 x	 LineStimuli//allStim/stimNo133r0c0v1.8.jpg	 r	 6.746	 GoodTrial	 allStim	 ra
30	 5	 0	 x	 LineStimuli//allStim/stimNo145r0c0v2.8.jpg	 r	 7.593	 GoodTrial	 allStim	 ra
31	 5	 0	 x	 LineStimuli//allStim/stimNo136r0c0v3.8.jpg	 r	 4.753	 GoodTrial	 allStim	 ra
32	 5	 0	 x	 LineStimuli//allStim/stimNo147r0c0v3.8.jpg	 r	 2.808	 GoodTrial	 allStim	 ra
33	 5	 1	 left	 LineStimuli//allStim/stimNo83r8c3v3.3.jpg	 l	 2.144	 GoodTrial	 allStim	 ra
34	 5	 0	 x	 LineStimuli//allStim/stimNo138r0c0v2.8.jpg	 r	 5.473	 GoodTrial	 allStim	 ra
35	 5	 1	 left	 LineStimuli//allStim/stimNo96r13c2v1.8.jpg	 r	 5.491	 GoodTrial	 allStim	 ra
36	 5	 0	 x	 LineStimuli//allStim/stimNo131r0c0v1.5.jpg	 r	 8.833	 GoodTrial	 allStim	 ra
37	 5	 0	 x	 LineStimuli//allStim/stimNo148r0c0v1.5.jpg	 r	 11.807	 GoodTrial	 allStim	 ra
38	 5	 1	 left	 LineStimuli//allStim/stimNo100r8c3v4.3.jpg	 l	 2.201	 GoodTrial	 allStim	 ra
39	 5	 0	 x	 LineStimuli//allStim/stimNo125r0c0v1.5.jpg	 r	 4.981	 GoodTrial	 allStim	 ra
40	 5	 0	 x	 LineStimuli//allStim/stimNo131r0c0v1.8.jpg	 r	 7.436	 GoodTrial	 allStim	 ra
41	 5	 0	 x	 LineStimuli//allStim/stimNo148r0c0v3.8.jpg	 r	 4.683	 GoodTrial	 allStim	 ra
42	 5	 0	 x	 LineStimuli//allStim/stimNo141r0c0v1.8.jpg	 r	 5.729	 GoodTrial	 allStim	 ra
43	 5	 0	 x	 LineStimuli//allStim/stimNo138r0c0v3.3.jpg	 r	 2.763	 GoodTrial	 allStim	 ra
44	 5	 0	 x	 LineStimuli//allStim/stimNo149r0c0v2.8.jpg	 r	 5.026	 GoodTrial	 allStim	 ra
45	 5	 1	 left	 LineStimuli//allStim/stimNo104r4c4v3.3.jpg	 l	 4.200	 GoodTrial	 allStim	 ra
46	 5	 0	 x	 LineStimuli//allStim/stimNo121r0c0v1.5.jpg	 r	 4.187	 GoodTrial	 allStim	 ra
47	 5	 1	 right	 LineStimuli//allStim/stimNo111r4c21v1.8.jpg	 r	 4.934	 GoodTrial	 allStim	 ra
48	 5	 0	 x	 LineStimuli//allStim/stimNo142r0c0v1.5.jpg	 l	 7.876	 GoodTrial	 allStim	 ra
49	 5	 1	 left	 LineStimuli//allStim/stimNo103r10c4v4.3.jpg	 l	 2.368	 GoodTrial	 allStim	 ra
50	 5	 0	 x	 LineStimuli//allStim/stimNo157r0c0v4.3.jpg	 r	 2.439	 GoodTrial	 allStim	 ra
1	 6	 0	 x	 LineStimuli//allStim/stimNo128r0c0v4.3.jpg	 r	 4.528	 GoodTrial	 allStim	 ra
2	 6	 1	 right	 LineStimuli//allStim/stimNo115r10c18v4.3.jpg	 l	 2.032	 GoodTrial	 allStim	 ra
3	 6	 1	 right	 LineStimuli//allStim/stimNo93r14c18v1.5.jpg	 r	 7.092	 GoodTrial	 allStim	 ra
4	 6	 1	 right	 LineStimuli//allStim/stimNo119r12c17v4.3.jpg	 l	 2.127	 GoodTrial	 allStim	 ra
5	 6	 0	 x	 LineStimuli//allStim/stimNo158r0c0v1.5.jpg	 r	 6.132	 GoodTrial	 allStim	 ra
6	 6	 0	 x	 LineStimuli//allStim/stimNo157r0c0v3.3.jpg	 r	 2.952	 GoodTrial	 allStim	 ra
7	 6	 0	 x	 LineStimuli//allStim/stimNo135r0c0v1.5.jpg	 l	 7.628	 GoodTrial	 allStim	 ra
8	 6	 0	 x	 LineStimuli//allStim/stimNo140r0c0v1.8.jpg	 r	 7.169	 GoodTrial	 allStim	 ra
9	 6	 0	 x	 LineStimuli//allStim/stimNo156r0c0v3.3.jpg	 r	 2.510	 GoodTrial	 allStim	 ra
10	 6	 1	 left	 LineStimuli//allStim/stimNo119r3c2v2.3.jpg	 l	 2.457	 GoodTrial	 allStim	 ra
11	 6	 1	 right	 LineStimuli//allStim/stimNo108r9c21v1.8.jpg	 r	 7.542	 GoodTrial	 allStim	 ra
12	 6	 1	 left	 LineStimuli//allStim/stimNo104r8c6v2.8.jpg	 l	 2.209	 GoodTrial	 allStim	 ra
13	 6	 0	 x	 LineStimuli//allStim/stimNo159r0c0v2.8.jpg	 r	 4.616	 GoodTrial	 allStim	 ra
14	 6	 0	 x	 LineStimuli//allStim/stimNo157r0c0v3.8.jpg	 r	 4.339	 GoodTrial	 allStim	 ra
15	 6	 0	 x	 LineStimuli//allStim/stimNo145r0c0v3.3.jpg	 r	 3.199	 GoodTrial	 allStim	 ra
16	 6	 0	 x	 LineStimuli//allStim/stimNo149r0c0v3.3.jpg	 r	 3.560	 GoodTrial	 allStim	 ra
17	 6	 1	 right	 LineStimuli//allStim/stimNo84r9c19v3.8.jpg	 l	 2.920	 GoodTrial	 allStim	 ra
18	 6	 1	 left	 LineStimuli//allStim/stimNo105r2c6v3.8.jpg	 l	 2.351	 GoodTrial	 allStim	 ra
19	 6	 1	 left	 LineStimuli//allStim/stimNo88r10c3v4.3.jpg	 l	 2.161	 GoodTrial	 allStim	 ra
20	 6	 1	 right	 LineStimuli//allStim/stimNo101r12c16v2.8.jpg	 l	 2.066	 GoodTrial	 allStim	 ra
21	 6	 0	 x	 LineStimuli//allStim/stimNo147r0c0v1.8.jpg	 r	 6.440	 GoodTrial	 allStim	 ra
22	 6	 1	 left	 LineStimuli//allStim/stimNo103r6c6v3.3.jpg	 l	 2.101	 GoodTrial	 allStim	 ra
23	 6	 0	 x	 LineStimuli//allStim/stimNo131r0c0v3.8.jpg	 r	 2.487	 GoodTrial	 allStim	 ra
24	 6	 1	 left	 LineStimuli//allStim/stimNo116r7c7v1.5.jpg	 r	 9.630	 GoodTrial	 allStim	 ra
25	 6	 1	 right	 LineStimuli//allStim/stimNo103r11c21v2.3.jpg	 l	 2.558	 GoodTrial	 allStim	 ra
26	 6	 0	 x	 LineStimuli//allStim/stimNo146r0c0v3.8.jpg	 r	 2.657	 GoodTrial	 allStim	 ra
27	 6	 1	 left	 LineStimuli//allStim/stimNo116r2c2v2.3.jpg	 r	 3.077	 GoodTrial	 allStim	 ra
28	 6	 0	 x	 LineStimuli//allStim/stimNo140r0c0v1.5.jpg	 r	 10.352	 GoodTrial	 allStim	 ra
29	 6	 1	 left	 LineStimuli//allStim/stimNo97r15c6v1.5.jpg	 r	 8.605	 GoodTrial	 allStim	 ra
30	 6	 1	 right	 LineStimuli//allStim/stimNo102r10c17v3.8.jpg	 l	 2.394	 GoodTrial	 allStim	 ra
31	 6	 0	 x	 LineStimuli//allStim/stimNo141r0c0v2.3.jpg	 r	 6.760	 GoodTrial	 allStim	 ra
32	 6	 0	 x	 LineStimuli//allStim/stimNo134r0c0v2.8.jpg	 r	 8.136	 GoodTrial	 allStim	 ra
33	 6	 0	 x	 LineStimuli//allStim/stimNo129r0c0v3.3.jpg	 r	 5.806	 GoodTrial	 allStim	 ra
34	 6	 1	 left	 LineStimuli//allStim/stimNo100r8c6v2.3.jpg	 l	 2.868	 GoodTrial	 allStim	 ra
35	 6	 0	 x	 LineStimuli//allStim/stimNo139r0c0v4.3.jpg	 r	 2.591	 GoodTrial	 allStim	 ra
36	 6	 0	 x	 LineStimuli//allStim/stimNo154r0c0v2.3.jpg	 r	 6.863	 GoodTrial	 allStim	 ra
37	 6	 1	 right	 LineStimuli//allStim/stimNo101r4c13v1.8.jpg	 l	 3.450	 GoodTrial	 allStim	 ra
38	 6	 1	 left	 LineStimuli//allStim/stimNo88r15c3v2.8.jpg	 l	 4.041	 GoodTrial	 allStim	 ra
39	 6	 1	 left	 LineStimuli//allStim/stimNo85r13c2v1.8.jpg	 l	 13.830	 GoodTrial	 allStim	 ra
40	 6	 1	 right	 LineStimuli//allStim/stimNo95r9c18v2.8.jpg	 l	 2.169	 GoodTrial	 allStim	 ra
41	 6	 1	 left	 LineStimuli//allStim/stimNo104r2c4v2.3.jpg	 l	 2.483	 GoodTrial	 allStim	 ra
42	 6	 0	 x	 LineStimuli//allStim/stimNo152r0c0v1.5.jpg	 r	 7.012	 GoodTrial	 allStim	 ra
43	 6	 1	 left	 LineStimuli//allStim/stimNo115r7c3v2.3.jpg	 l	 2.806	 GoodTrial	 allStim	 ra
44	 6	 0	 x	 LineStimuli//allStim/stimNo155r0c0v3.8.jpg	 r	 4.478	 GoodTrial	 allStim	 ra
45	 6	 1	 right	 LineStimuli//allStim/stimNo99r6c17v3.3.jpg	 l	 2.221	 GoodTrial	 allStim	 ra
46	 6	 0	 x	 LineStimuli//allStim/stimNo155r0c0v1.5.jpg	 r	 4.694	 GoodTrial	 allStim	 ra
47	 6	 0	 x	 LineStimuli//allStim/stimNo153r0c0v3.3.jpg	 r	 3.067	 GoodTrial	 allStim	 ra
48	 6	 1	 left	 LineStimuli//allStim/stimNo111r15c7v3.3.jpg	 l	 2.596	 GoodTrial	 allStim	 ra
49	 6	 0	 x	 LineStimuli//allStim/stimNo141r0c0v1.5.jpg	 r	 8.432	 GoodTrial	 allStim	 ra
50	 6	 0	 x	 LineStimuli//allStim/stimNo159r0c0v1.8.jpg	 r	 8.220	 GoodTrial	 allStim	 ra
1	 7	 0	 x	 LineStimuli//allStim/stimNo142r0c0v1.8.jpg	 r	 6.268	 GoodTrial	 allStim	 ra
2	 7	 1	 left	 LineStimuli//allStim/stimNo95r13c9v2.3.jpg	 l	 2.752	 GoodTrial	 allStim	 ra
3	 7	 0	 x	 LineStimuli//allStim/stimNo147r0c0v3.3.jpg	 r	 3.966	 GoodTrial	 allStim	 ra
4	 7	 0	 x	 LineStimuli//allStim/stimNo141r0c0v3.8.jpg	 r	 5.011	 GoodTrial	 allStim	 ra
5	 7	 1	 left	 LineStimuli//allStim/stimNo111r15c7v3.3.jpg	 l	 2.236	 GoodTrial	 allStim	 ra
6	 7	 1	 right	 LineStimuli//allStim/stimNo85r3c13v3.8.jpg	 l	 2.033	 GoodTrial	 allStim	 ra
7	 7	 1	 right	 LineStimuli//allStim/stimNo118r11c13v4.3.jpg	 l	 2.001	 GoodTrial	 allStim	 ra
8	 7	 0	 x	 LineStimuli//allStim/stimNo144r0c0v2.8.jpg	 r	 2.866	 GoodTrial	 allStim	 ra
9	 7	 1	 left	 LineStimuli//allStim/stimNo103r6c6v3.3.jpg	 l	 2.137	 GoodTrial	 allStim	 ra
10	 7	 0	 x	 LineStimuli//allStim/stimNo140r0c0v1.5.jpg	 r	 7.110	 GoodTrial	 allStim	 ra
11	 7	 0	 x	 LineStimuli//allStim/stimNo138r0c0v2.8.jpg	 x	 2.644	 GoodTrial	 allStim	 ra
12	 7	 0	 x	 LineStimuli//allStim/stimNo153r0c0v3.8.jpg	 r	 6.201	 GoodTrial	 allStim	 ra
13	 7	 0	 x	 LineStimuli//allStim/stimNo125r0c0v3.8.jpg	 r	 2.607	 GoodTrial	 allStim	 ra
14	 7	 0	 x	 LineStimuli//allStim/stimNo137r0c0v4.3.jpg	 r	 3.176	 GoodTrial	 allStim	 ra
15	 7	 1	 left	 LineStimuli//allStim/stimNo104r12c8v3.8.jpg	 l	 2.075	 GoodTrial	 allStim	 ra
16	 7	 0	 x	 LineStimuli//allStim/stimNo154r0c0v2.8.jpg	 r	 4.512	 GoodTrial	 allStim	 ra
17	 7	 1	 right	 LineStimuli//allStim/stimNo114r10c14v3.8.jpg	 l	 2.040	 GoodTrial	 allStim	 ra
18	 7	 1	 left	 LineStimuli//allStim/stimNo93r8c2v3.8.jpg	 l	 2.167	 GoodTrial	 allStim	 ra
19	 7	 0	 x	 LineStimuli//allStim/stimNo129r0c0v1.8.jpg	 r	 8.140	 GoodTrial	 allStim	 ra
20	 7	 0	 x	 LineStimuli//allStim/stimNo142r0c0v1.5.jpg	 r	 5.663	 GoodTrial	 allStim	 ra
21	 7	 0	 x	 LineStimuli//allStim/stimNo145r0c0v2.3.jpg	 r	 5.499	 GoodTrial	 allStim	 ra
22	 7	 1	 right	 LineStimuli//allStim/stimNo108r13c15v1.5.jpg	 r	 13.521	 GoodTrial	 allStim	 ra
23	 7	 1	 right	 LineStimuli//allStim/stimNo103r3c19v2.8.jpg	 l	 2.298	 GoodTrial	 allStim	 ra
24	 7	 0	 x	 LineStimuli//allStim/stimNo154r0c0v3.8.jpg	 r	 4.408	 GoodTrial	 allStim	 ra
25	 7	 1	 left	 LineStimuli//allStim/stimNo81r15c8v3.3.jpg	 l	 2.347	 GoodTrial	 allStim	 ra
26	 7	 0	 x	 LineStimuli//allStim/stimNo129r0c0v3.3.jpg	 r	 2.707	 GoodTrial	 allStim	 ra
27	 7	 0	 x	 LineStimuli//allStim/stimNo138r0c0v3.8.jpg	 r	 2.699	 GoodTrial	 allStim	 ra
28	 7	 0	 x	 LineStimuli//allStim/stimNo126r0c0v1.5.jpg	 r	 6.962	 GoodTrial	 allStim	 ra
29	 7	 1	 right	 LineStimuli//allStim/stimNo118r11c15v1.8.jpg	 r	 7.023	 GoodTrial	 allStim	 ra
30	 7	 0	 x	 LineStimuli//allStim/stimNo133r0c0v2.8.jpg	 r	 5.535	 GoodTrial	 allStim	 ra
31	 7	 1	 left	 LineStimuli//allStim/stimNo88r15c2v2.3.jpg	 r	 8.672	 GoodTrial	 allStim	 ra
32	 7	 0	 x	 LineStimuli//allStim/stimNo126r0c0v2.8.jpg	 r	 6.265	 GoodTrial	 allStim	 ra
33	 7	 0	 x	 LineStimuli//allStim/stimNo133r0c0v3.8.jpg	 r	 3.713	 GoodTrial	 allStim	 ra
34	 7	 0	 x	 LineStimuli//allStim/stimNo158r0c0v1.5.jpg	 r	 16.204	 GoodTrial	 allStim	 ra
35	 7	 0	 x	 LineStimuli//allStim/stimNo127r0c0v4.3.jpg	 r	 2.401	 GoodTrial	 allStim	 ra
36	 7	 1	 right	 LineStimuli//allStim/stimNo87r6c13v3.8.jpg	 l	 2.226	 GoodTrial	 allStim	 ra
37	 7	 0	 x	 LineStimuli//allStim/stimNo139r0c0v3.3.jpg	 r	 2.307	 GoodTrial	 allStim	 ra
38	 7	 0	 x	 LineStimuli//allStim/stimNo157r0c0v4.3.jpg	 r	 2.255	 GoodTrial	 allStim	 ra
39	 7	 0	 x	 LineStimuli//allStim/stimNo141r0c0v1.8.jpg	 r	 6.417	 GoodTrial	 allStim	 ra
40	 7	 1	 left	 LineStimuli//allStim/stimNo120r14c9v1.8.jpg	 r	 5.637	 GoodTrial	 allStim	 ra
41	 7	 1	 right	 LineStimuli//allStim/stimNo114r10c15v4.3.jpg	 l	 2.080	 GoodTrial	 allStim	 ra
42	 7	 0	 x	 LineStimuli//allStim/stimNo158r0c0v2.3.jpg	 r	 7.723	 GoodTrial	 allStim	 ra
43	 7	 0	 x	 LineStimuli//allStim/stimNo125r0c0v1.8.jpg	 r	 7.589	 GoodTrial	 allStim	 ra
44	 7	 0	 x	 LineStimuli//allStim/stimNo145r0c0v2.8.jpg	 r	 3.590	 GoodTrial	 allStim	 ra
45	 7	 0	 x	 LineStimuli//allStim/stimNo124r0c0v1.5.jpg	 r	 8.663	 GoodTrial	 allStim	 ra
46	 7	 1	 left	 LineStimuli//allStim/stimNo97r15c9v3.8.jpg	 l	 2.372	 GoodTrial	 allStim	 ra
47	 7	 1	 right	 LineStimuli//allStim/stimNo93r3c17v1.8.jpg	 l	 3.722	 GoodTrial	 allStim	 ra
48	 7	 1	 left	 LineStimuli//allStim/stimNo104r4c4v3.3.jpg	 l	 2.140	 GoodTrial	 allStim	 ra
49	 7	 1	 right	 LineStimuli//allStim/stimNo117r11c17v2.8.jpg	 l	 2.071	 GoodTrial	 allStim	 ra
50	 7	 1	 right	 LineStimuli//allStim/stimNo108r9c21v1.8.jpg	 l	 3.418	 GoodTrial	 allStim	 ra
