Trial	Block	Target_pr	Target_side	Name	Key	RT	Message	Block_Type	Condition
1	 1	 1	 left	 LineStimuli//allStim/stimNo87r3c5v4.3.jpg	 l	 8.691	 GoodTrial	 allStim	 ra
2	 1	 1	 left	 LineStimuli//allStim/stimNo120r5c3v3.8.jpg	 l	 3.456	 GoodTrial	 allStim	 ra
3	 1	 0	 x	 LineStimuli//allStim/stimNo127r0c0v2.3.jpg	 r	 6.527	 GoodTrial	 allStim	 ra
4	 1	 1	 right	 LineStimuli//allStim/stimNo90r15c13v1.8.jpg	 l	 6.598	 GoodTrial	 allStim	 ra
5	 1	 0	 x	 LineStimuli//allStim/stimNo136r0c0v4.3.jpg	 l	 2.972	 GoodTrial	 allStim	 ra
6	 1	 0	 x	 LineStimuli//allStim/stimNo145r0c0v1.8.jpg	 r	 5.257	 GoodTrial	 allStim	 ra
7	 1	 0	 x	 LineStimuli//allStim/stimNo155r0c0v1.5.jpg	 r	 4.919	 GoodTrial	 allStim	 ra
8	 1	 1	 left	 LineStimuli//allStim/stimNo83r8c3v3.3.jpg	 l	 5.136	 GoodTrial	 allStim	 ra
9	 1	 0	 x	 LineStimuli//allStim/stimNo142r0c0v2.3.jpg	 r	 3.898	 GoodTrial	 allStim	 ra
10	 1	 0	 x	 LineStimuli//allStim/stimNo128r0c0v2.3.jpg	 r	 6.088	 GoodTrial	 allStim	 ra
11	 1	 0	 x	 LineStimuli//allStim/stimNo121r0c0v1.5.jpg	 r	 4.885	 GoodTrial	 allStim	 ra
12	 1	 1	 left	 LineStimuli//allStim/stimNo118r4c8v3.8.jpg	 l	 2.632	 GoodTrial	 allStim	 ra
13	 1	 0	 x	 LineStimuli//allStim/stimNo153r0c0v3.8.jpg	 r	 3.172	 GoodTrial	 allStim	 ra
14	 1	 0	 x	 LineStimuli//allStim/stimNo142r0c0v4.3.jpg	 r	 4.651	 GoodTrial	 allStim	 ra
15	 1	 1	 left	 LineStimuli//allStim/stimNo91r2c3v2.8.jpg	 r	 2.794	 GoodTrial	 allStim	 ra
16	 1	 1	 right	 LineStimuli//allStim/stimNo103r11c21v2.3.jpg	 r	 5.920	 GoodTrial	 allStim	 ra
17	 1	 1	 right	 LineStimuli//allStim/stimNo88r9c14v3.3.jpg	 l	 2.936	 GoodTrial	 allStim	 ra
18	 1	 0	 x	 LineStimuli//allStim/stimNo147r0c0v4.3.jpg	 r	 5.544	 GoodTrial	 allStim	 ra
19	 1	 1	 left	 LineStimuli//allStim/stimNo89r10c7v3.8.jpg	 l	 2.640	 GoodTrial	 allStim	 ra
20	 1	 1	 right	 LineStimuli//allStim/stimNo92r6c18v1.5.jpg	 r	 5.545	 GoodTrial	 allStim	 ra
21	 1	 0	 x	 LineStimuli//allStim/stimNo123r0c0v4.3.jpg	 r	 5.515	 GoodTrial	 allStim	 ra
22	 1	 1	 left	 LineStimuli//allStim/stimNo89r8c9v1.5.jpg	 r	 3.896	 GoodTrial	 allStim	 ra
23	 1	 0	 x	 LineStimuli//allStim/stimNo147r0c0v1.5.jpg	 r	 6.614	 GoodTrial	 allStim	 ra
24	 1	 0	 x	 LineStimuli//allStim/stimNo141r0c0v2.8.jpg	 l	 7.226	 GoodTrial	 allStim	 ra
25	 1	 1	 right	 LineStimuli//allStim/stimNo84r15c14v2.3.jpg	 r	 4.295	 GoodTrial	 allStim	 ra
26	 1	 0	 x	 LineStimuli//allStim/stimNo157r0c0v2.3.jpg	 r	 7.113	 GoodTrial	 allStim	 ra
27	 1	 1	 right	 LineStimuli//allStim/stimNo91r9c13v4.3.jpg	 l	 2.330	 GoodTrial	 allStim	 ra
28	 1	 0	 x	 LineStimuli//allStim/stimNo127r0c0v3.3.jpg	 r	 9.436	 GoodTrial	 allStim	 ra
29	 1	 1	 right	 LineStimuli//allStim/stimNo87r6c13v3.8.jpg	 l	 2.903	 GoodTrial	 allStim	 ra
30	 1	 0	 x	 LineStimuli//allStim/stimNo131r0c0v3.8.jpg	 l	 4.346	 GoodTrial	 allStim	 ra
31	 1	 0	 x	 LineStimuli//allStim/stimNo126r0c0v1.5.jpg	 l	 7.033	 GoodTrial	 allStim	 ra
32	 1	 1	 right	 LineStimuli//allStim/stimNo81r3c21v3.8.jpg	 l	 6.501	 GoodTrial	 allStim	 ra
33	 1	 0	 x	 LineStimuli//allStim/stimNo138r0c0v1.5.jpg	 r	 3.982	 GoodTrial	 allStim	 ra
34	 1	 1	 left	 LineStimuli//allStim/stimNo107r2c8v4.3.jpg	 l	 6.224	 GoodTrial	 allStim	 ra
35	 1	 1	 right	 LineStimuli//allStim/stimNo92r6c21v3.8.jpg	 r	 3.582	 GoodTrial	 allStim	 ra
36	 1	 0	 x	 LineStimuli//allStim/stimNo148r0c0v3.3.jpg	 l	 4.151	 GoodTrial	 allStim	 ra
37	 1	 0	 x	 LineStimuli//allStim/stimNo125r0c0v3.8.jpg	 r	 1.954	 GoodTrial	 allStim	 ra
38	 1	 0	 x	 LineStimuli//allStim/stimNo155r0c0v1.8.jpg	 r	 2.099	 GoodTrial	 allStim	 ra
39	 1	 0	 x	 LineStimuli//allStim/stimNo133r0c0v1.8.jpg	 r	 1.779	 GoodTrial	 allStim	 ra
40	 1	 0	 x	 LineStimuli//allStim/stimNo127r0c0v3.8.jpg	 x	 0.232	 EARLY_RESPONSE	 allStim	 ra
41	 1	 0	 x	 LineStimuli//allStim/stimNo124r0c0v2.8.jpg	 l	 3.534	 GoodTrial	 allStim	 ra
42	 1	 1	 right	 LineStimuli//allStim/stimNo91r10c16v3.8.jpg	 r	 2.038	 GoodTrial	 allStim	 ra
43	 1	 1	 right	 LineStimuli//allStim/stimNo100r6c20v1.5.jpg	 l	 3.308	 GoodTrial	 allStim	 ra
44	 1	 1	 left	 LineStimuli//allStim/stimNo96r6c9v2.8.jpg	 l	 3.176	 GoodTrial	 allStim	 ra
45	 1	 1	 left	 LineStimuli//allStim/stimNo82r12c4v2.3.jpg	 l	 2.368	 GoodTrial	 allStim	 ra
46	 1	 0	 x	 LineStimuli//allStim/stimNo133r0c0v1.5.jpg	 r	 3.337	 GoodTrial	 allStim	 ra
47	 1	 1	 left	 LineStimuli//allStim/stimNo100r13c6v3.8.jpg	 l	 2.403	 GoodTrial	 allStim	 ra
48	 1	 1	 left	 LineStimuli//allStim/stimNo108r3c6v3.8.jpg	 l	 2.600	 GoodTrial	 allStim	 ra
49	 1	 0	 x	 LineStimuli//allStim/stimNo153r0c0v1.5.jpg	 l	 2.911	 GoodTrial	 allStim	 ra
50	 1	 0	 x	 LineStimuli//allStim/stimNo135r0c0v2.8.jpg	 r	 2.176	 GoodTrial	 allStim	 ra
1	 2	 1	 right	 LineStimuli//allStim/stimNo106r13c20v2.8.jpg	 l	 4.504	 GoodTrial	 allStim	 ra
2	 2	 0	 x	 LineStimuli//allStim/stimNo125r0c0v1.8.jpg	 l	 3.534	 GoodTrial	 allStim	 ra
3	 2	 0	 x	 LineStimuli//allStim/stimNo138r0c0v3.3.jpg	 l	 2.008	 GoodTrial	 allStim	 ra
4	 2	 0	 x	 LineStimuli//allStim/stimNo156r0c0v1.8.jpg	 l	 1.918	 GoodTrial	 allStim	 ra
5	 2	 1	 left	 LineStimuli//allStim/stimNo106r3c7v1.5.jpg	 r	 2.705	 GoodTrial	 allStim	 ra
6	 2	 0	 x	 LineStimuli//allStim/stimNo158r0c0v1.8.jpg	 l	 3.834	 GoodTrial	 allStim	 ra
7	 2	 1	 right	 LineStimuli//allStim/stimNo92r10c18v1.8.jpg	 r	 1.734	 GoodTrial	 allStim	 ra
8	 2	 0	 x	 LineStimuli//allStim/stimNo125r0c0v2.8.jpg	 r	 1.440	 GoodTrial	 allStim	 ra
9	 2	 1	 left	 LineStimuli//allStim/stimNo81r15c8v3.3.jpg	 r	 2.029	 GoodTrial	 allStim	 ra
10	 2	 1	 right	 LineStimuli//allStim/stimNo89r8c21v2.3.jpg	 r	 2.094	 GoodTrial	 allStim	 ra
11	 2	 1	 right	 LineStimuli//allStim/stimNo114r10c14v3.8.jpg	 l	 0.824	 EARLY_RESPONSE	 allStim	 ra
12	 2	 0	 x	 LineStimuli//allStim/stimNo141r0c0v1.8.jpg	 l	 3.191	 GoodTrial	 allStim	 ra
13	 2	 0	 x	 LineStimuli//allStim/stimNo135r0c0v3.3.jpg	 l	 1.841	 GoodTrial	 allStim	 ra
14	 2	 0	 x	 LineStimuli//allStim/stimNo139r0c0v3.8.jpg	 x	 0.216	 EARLY_RESPONSE	 allStim	 ra
15	 2	 0	 x	 LineStimuli//allStim/stimNo140r0c0v2.3.jpg	 l	 1.943	 GoodTrial	 allStim	 ra
16	 2	 0	 x	 LineStimuli//allStim/stimNo131r0c0v1.5.jpg	 r	 1.951	 GoodTrial	 allStim	 ra
17	 2	 1	 right	 LineStimuli//allStim/stimNo107r2c17v3.3.jpg	 r	 1.746	 GoodTrial	 allStim	 ra
18	 2	 0	 x	 LineStimuli//allStim/stimNo133r0c0v2.3.jpg	 l	 0.136	 EARLY_RESPONSE	 allStim	 ra
19	 2	 0	 x	 LineStimuli//allStim/stimNo145r0c0v3.8.jpg	 l	 3.036	 GoodTrial	 allStim	 ra
20	 2	 1	 left	 LineStimuli//allStim/stimNo113r6c7v1.8.jpg	 l	 9.313	 GoodTrial	 allStim	 ra
21	 2	 0	 x	 LineStimuli//allStim/stimNo130r0c0v3.8.jpg	 l	 2.625	 GoodTrial	 allStim	 ra
22	 2	 0	 x	 LineStimuli//allStim/stimNo122r0c0v4.3.jpg	 r	 9.417	 GoodTrial	 allStim	 ra
23	 2	 1	 left	 LineStimuli//allStim/stimNo106r9c9v3.3.jpg	 r	 3.633	 GoodTrial	 allStim	 ra
24	 2	 1	 left	 LineStimuli//allStim/stimNo110r4c3v3.3.jpg	 l	 3.926	 GoodTrial	 allStim	 ra
25	 2	 0	 x	 LineStimuli//allStim/stimNo140r0c0v1.8.jpg	 r	 3.532	 GoodTrial	 allStim	 ra
26	 2	 0	 x	 LineStimuli//allStim/stimNo157r0c0v1.8.jpg	 r	 3.706	 GoodTrial	 allStim	 ra
27	 2	 1	 left	 LineStimuli//allStim/stimNo83r4c2v4.3.jpg	 r	 3.962	 GoodTrial	 allStim	 ra
28	 2	 0	 x	 LineStimuli//allStim/stimNo145r0c0v3.3.jpg	 l	 3.810	 GoodTrial	 allStim	 ra
29	 2	 1	 left	 LineStimuli//allStim/stimNo106r9c9v2.3.jpg	 r	 2.440	 GoodTrial	 allStim	 ra
30	 2	 1	 left	 LineStimuli//allStim/stimNo113r9c5v2.8.jpg	 l	 3.376	 GoodTrial	 allStim	 ra
31	 2	 1	 left	 LineStimuli//allStim/stimNo93r3c5v3.3.jpg	 l	 2.792	 GoodTrial	 allStim	 ra
32	 2	 0	 x	 LineStimuli//allStim/stimNo157r0c0v2.8.jpg	 r	 4.333	 GoodTrial	 allStim	 ra
33	 2	 1	 right	 LineStimuli//allStim/stimNo117r10c21v4.3.jpg	 r	 4.724	 GoodTrial	 allStim	 ra
34	 2	 0	 x	 LineStimuli//allStim/stimNo147r0c0v4.3.jpg	 r	 3.528	 GoodTrial	 allStim	 ra
35	 2	 1	 right	 LineStimuli//allStim/stimNo112r13c17v2.8.jpg	 l	 4.133	 GoodTrial	 allStim	 ra
36	 2	 1	 right	 LineStimuli//allStim/stimNo99r2c13v3.8.jpg	 l	 4.299	 GoodTrial	 allStim	 ra
37	 2	 1	 left	 LineStimuli//allStim/stimNo94r10c6v1.5.jpg	 l	 3.098	 GoodTrial	 allStim	 ra
38	 2	 0	 x	 LineStimuli//allStim/stimNo132r0c0v2.3.jpg	 r	 2.893	 GoodTrial	 allStim	 ra
39	 2	 1	 left	 LineStimuli//allStim/stimNo90r10c4v4.3.jpg	 l	 2.336	 GoodTrial	 allStim	 ra
40	 2	 1	 right	 LineStimuli//allStim/stimNo82r7c18v1.8.jpg	 l	 3.160	 GoodTrial	 allStim	 ra
41	 2	 0	 x	 LineStimuli//allStim/stimNo147r0c0v3.3.jpg	 l	 4.712	 GoodTrial	 allStim	 ra
42	 2	 1	 left	 LineStimuli//allStim/stimNo107r2c8v4.3.jpg	 l	 2.815	 GoodTrial	 allStim	 ra
43	 2	 1	 right	 LineStimuli//allStim/stimNo101r4c13v1.8.jpg	 r	 5.275	 GoodTrial	 allStim	 ra
44	 2	 0	 x	 LineStimuli//allStim/stimNo157r0c0v4.3.jpg	 l	 4.278	 GoodTrial	 allStim	 ra
45	 2	 1	 right	 LineStimuli//allStim/stimNo92r6c18v1.5.jpg	 l	 2.371	 GoodTrial	 allStim	 ra
46	 2	 1	 left	 LineStimuli//allStim/stimNo113r11c7v4.3.jpg	 l	 2.100	 GoodTrial	 allStim	 ra
47	 2	 0	 x	 LineStimuli//allStim/stimNo122r0c0v3.3.jpg	 r	 3.523	 GoodTrial	 allStim	 ra
48	 2	 0	 x	 LineStimuli//allStim/stimNo149r0c0v3.3.jpg	 l	 4.442	 GoodTrial	 allStim	 ra
49	 2	 1	 right	 LineStimuli//allStim/stimNo99r12c16v1.8.jpg	 r	 4.402	 GoodTrial	 allStim	 ra
50	 2	 0	 x	 LineStimuli//allStim/stimNo135r0c0v3.8.jpg	 l	 2.928	 GoodTrial	 allStim	 ra
1	 3	 1	 left	 LineStimuli//allStim/stimNo108r3c6v3.8.jpg	 l	 2.638	 GoodTrial	 allStim	 ra
2	 3	 0	 x	 LineStimuli//allStim/stimNo151r0c0v2.8.jpg	 l	 3.188	 GoodTrial	 allStim	 ra
3	 3	 0	 x	 LineStimuli//allStim/stimNo149r0c0v3.3.jpg	 l	 2.454	 GoodTrial	 allStim	 ra
4	 3	 0	 x	 LineStimuli//allStim/stimNo128r0c0v2.8.jpg	 r	 1.755	 GoodTrial	 allStim	 ra
5	 3	 0	 x	 LineStimuli//allStim/stimNo139r0c0v4.3.jpg	 r	 1.761	 GoodTrial	 allStim	 ra
6	 3	 0	 x	 LineStimuli//allStim/stimNo147r0c0v1.5.jpg	 r	 1.786	 GoodTrial	 allStim	 ra
7	 3	 1	 right	 LineStimuli//allStim/stimNo96r8c18v3.3.jpg	 r	 1.696	 GoodTrial	 allStim	 ra
8	 3	 0	 x	 LineStimuli//allStim/stimNo156r0c0v2.8.jpg	 r	 2.408	 GoodTrial	 allStim	 ra
9	 3	 0	 x	 LineStimuli//allStim/stimNo153r0c0v4.3.jpg	 l	 3.026	 GoodTrial	 allStim	 ra
10	 3	 1	 right	 LineStimuli//allStim/stimNo99r2c13v2.3.jpg	 l	 2.872	 GoodTrial	 allStim	 ra
11	 3	 1	 right	 LineStimuli//allStim/stimNo101r8c14v2.3.jpg	 l	 2.521	 GoodTrial	 allStim	 ra
12	 3	 1	 right	 LineStimuli//allStim/stimNo81r10c14v4.3.jpg	 l	 3.195	 GoodTrial	 allStim	 ra
13	 3	 0	 x	 LineStimuli//allStim/stimNo126r0c0v1.8.jpg	 r	 3.569	 GoodTrial	 allStim	 ra
14	 3	 1	 right	 LineStimuli//allStim/stimNo114r8c19v2.8.jpg	 l	 2.882	 GoodTrial	 allStim	 ra
15	 3	 1	 right	 LineStimuli//allStim/stimNo118r9c20v1.5.jpg	 r	 2.900	 GoodTrial	 allStim	 ra
16	 3	 0	 x	 LineStimuli//allStim/stimNo125r0c0v1.5.jpg	 l	 2.312	 GoodTrial	 allStim	 ra
17	 3	 0	 x	 LineStimuli//allStim/stimNo127r0c0v2.8.jpg	 r	 2.071	 GoodTrial	 allStim	 ra
18	 3	 0	 x	 LineStimuli//allStim/stimNo125r0c0v4.3.jpg	 r	 3.166	 GoodTrial	 allStim	 ra
19	 3	 1	 left	 LineStimuli//allStim/stimNo117r7c8v1.5.jpg	 l	 3.940	 GoodTrial	 allStim	 ra
20	 3	 1	 right	 LineStimuli//allStim/stimNo111r11c21v2.3.jpg	 r	 4.116	 GoodTrial	 allStim	 ra
21	 3	 1	 right	 LineStimuli//allStim/stimNo97r6c13v3.3.jpg	 l	 2.020	 GoodTrial	 allStim	 ra
22	 3	 1	 left	 LineStimuli//allStim/stimNo119r3c2v2.3.jpg	 l	 5.786	 GoodTrial	 allStim	 ra
23	 3	 1	 left	 LineStimuli//allStim/stimNo94r14c9v3.3.jpg	 l	 3.249	 GoodTrial	 allStim	 ra
24	 3	 1	 left	 LineStimuli//allStim/stimNo97r15c6v1.5.jpg	 l	 2.190	 GoodTrial	 allStim	 ra
25	 3	 1	 left	 LineStimuli//allStim/stimNo87r14c2v1.8.jpg	 l	 1.837	 GoodTrial	 allStim	 ra
26	 3	 1	 right	 LineStimuli//allStim/stimNo96r4c19v4.3.jpg	 l	 1.916	 GoodTrial	 allStim	 ra
27	 3	 1	 right	 LineStimuli//allStim/stimNo95r5c21v3.8.jpg	 x	 2.045	 GoodTrial	 allStim	 ra
28	 3	 0	 x	 LineStimuli//allStim/stimNo148r0c0v1.5.jpg	 l	 0.144	 EARLY_RESPONSE	 allStim	 ra
29	 3	 1	 left	 LineStimuli//allStim/stimNo113r9c5v2.8.jpg	 l	 2.169	 GoodTrial	 allStim	 ra
30	 3	 0	 x	 LineStimuli//allStim/stimNo140r0c0v2.8.jpg	 l	 2.272	 GoodTrial	 allStim	 ra
31	 3	 1	 left	 LineStimuli//allStim/stimNo97r3c3v2.3.jpg	 l	 2.143	 GoodTrial	 allStim	 ra
32	 3	 0	 x	 LineStimuli//allStim/stimNo134r0c0v1.5.jpg	 l	 2.068	 GoodTrial	 allStim	 ra
33	 3	 0	 x	 LineStimuli//allStim/stimNo127r0c0v3.3.jpg	 l	 2.866	 GoodTrial	 allStim	 ra
34	 3	 0	 x	 LineStimuli//allStim/stimNo136r0c0v4.3.jpg	 l	 2.960	 GoodTrial	 allStim	 ra
35	 3	 1	 right	 LineStimuli//allStim/stimNo119r3c21v1.8.jpg	 r	 3.745	 GoodTrial	 allStim	 ra
36	 3	 1	 left	 LineStimuli//allStim/stimNo106r9c9v3.3.jpg	 x	 1.473	 GoodTrial	 allStim	 ra
37	 3	 0	 x	 LineStimuli//allStim/stimNo151r0c0v3.3.jpg	 l	 1.781	 GoodTrial	 allStim	 ra
38	 3	 0	 x	 LineStimuli//allStim/stimNo132r0c0v3.8.jpg	 l	 2.122	 GoodTrial	 allStim	 ra
39	 3	 0	 x	 LineStimuli//allStim/stimNo160r0c0v1.8.jpg	 l	 2.627	 GoodTrial	 allStim	 ra
40	 3	 1	 left	 LineStimuli//allStim/stimNo105r14c6v4.3.jpg	 l	 2.592	 GoodTrial	 allStim	 ra
41	 3	 1	 right	 LineStimuli//allStim/stimNo82r11c20v3.3.jpg	 l	 2.375	 GoodTrial	 allStim	 ra
42	 3	 1	 left	 LineStimuli//allStim/stimNo91r2c3v2.8.jpg	 r	 2.338	 GoodTrial	 allStim	 ra
43	 3	 1	 left	 LineStimuli//allStim/stimNo86r8c9v2.3.jpg	 l	 2.046	 GoodTrial	 allStim	 ra
44	 3	 0	 x	 LineStimuli//allStim/stimNo131r0c0v4.3.jpg	 x	 1.106	 GoodTrial	 allStim	 ra
45	 3	 0	 x	 LineStimuli//allStim/stimNo129r0c0v1.5.jpg	 l	 3.232	 GoodTrial	 allStim	 ra
46	 3	 1	 right	 LineStimuli//allStim/stimNo109r6c18v2.8.jpg	 l	 2.343	 GoodTrial	 allStim	 ra
47	 3	 1	 left	 LineStimuli//allStim/stimNo88r10c3v4.3.jpg	 r	 3.376	 GoodTrial	 allStim	 ra
48	 3	 0	 x	 LineStimuli//allStim/stimNo138r0c0v4.3.jpg	 l	 3.289	 GoodTrial	 allStim	 ra
49	 3	 1	 right	 LineStimuli//allStim/stimNo103r13c17v1.5.jpg	 l	 3.261	 GoodTrial	 allStim	 ra
50	 3	 0	 x	 LineStimuli//allStim/stimNo138r0c0v1.5.jpg	 r	 3.408	 GoodTrial	 allStim	 ra
1	 4	 0	 x	 LineStimuli//allStim/stimNo124r0c0v1.5.jpg	 l	 3.713	 GoodTrial	 allStim	 ra
2	 4	 0	 x	 LineStimuli//allStim/stimNo149r0c0v3.8.jpg	 l	 7.506	 GoodTrial	 allStim	 ra
3	 4	 1	 right	 LineStimuli//allStim/stimNo97r6c21v4.3.jpg	 l	 2.798	 GoodTrial	 allStim	 ra
4	 4	 0	 x	 LineStimuli//allStim/stimNo147r0c0v3.3.jpg	 r	 2.644	 GoodTrial	 allStim	 ra
5	 4	 1	 left	 LineStimuli//allStim/stimNo98r3c8v4.3.jpg	 l	 2.481	 GoodTrial	 allStim	 ra
6	 4	 1	 right	 LineStimuli//allStim/stimNo90r8c17v3.8.jpg	 l	 3.201	 GoodTrial	 allStim	 ra
7	 4	 0	 x	 LineStimuli//allStim/stimNo157r0c0v2.3.jpg	 r	 3.566	 GoodTrial	 allStim	 ra
8	 4	 0	 x	 LineStimuli//allStim/stimNo122r0c0v3.8.jpg	 r	 6.030	 GoodTrial	 allStim	 ra
9	 4	 0	 x	 LineStimuli//allStim/stimNo146r0c0v3.3.jpg	 r	 3.946	 GoodTrial	 allStim	 ra
10	 4	 0	 x	 LineStimuli//allStim/stimNo157r0c0v1.8.jpg	 r	 2.569	 GoodTrial	 allStim	 ra
11	 4	 0	 x	 LineStimuli//allStim/stimNo133r0c0v3.8.jpg	 r	 2.422	 GoodTrial	 allStim	 ra
12	 4	 0	 x	 LineStimuli//allStim/stimNo153r0c0v3.8.jpg	 r	 2.581	 GoodTrial	 allStim	 ra
13	 4	 0	 x	 LineStimuli//allStim/stimNo143r0c0v4.3.jpg	 r	 3.338	 GoodTrial	 allStim	 ra
14	 4	 1	 right	 LineStimuli//allStim/stimNo84r3c18v1.5.jpg	 l	 5.040	 GoodTrial	 allStim	 ra
15	 4	 0	 x	 LineStimuli//allStim/stimNo142r0c0v4.3.jpg	 r	 3.141	 GoodTrial	 allStim	 ra
16	 4	 1	 left	 LineStimuli//allStim/stimNo96r6c9v2.8.jpg	 l	 2.086	 GoodTrial	 allStim	 ra
17	 4	 0	 x	 LineStimuli//allStim/stimNo154r0c0v1.8.jpg	 r	 3.999	 GoodTrial	 allStim	 ra
18	 4	 1	 right	 LineStimuli//allStim/stimNo114r8c13v1.8.jpg	 r	 2.544	 GoodTrial	 allStim	 ra
19	 4	 0	 x	 LineStimuli//allStim/stimNo153r0c0v1.8.jpg	 r	 3.992	 GoodTrial	 allStim	 ra
20	 4	 0	 x	 LineStimuli//allStim/stimNo157r0c0v2.8.jpg	 l	 5.231	 GoodTrial	 allStim	 ra
21	 4	 0	 x	 LineStimuli//allStim/stimNo145r0c0v2.8.jpg	 l	 2.819	 GoodTrial	 allStim	 ra
22	 4	 1	 right	 LineStimuli//allStim/stimNo117r10c21v4.3.jpg	 x	 1.064	 GoodTrial	 allStim	 ra
23	 4	 0	 x	 LineStimuli//allStim/stimNo131r0c0v2.3.jpg	 r	 2.247	 GoodTrial	 allStim	 ra
24	 4	 1	 left	 LineStimuli//allStim/stimNo107r2c8v4.3.jpg	 l	 2.100	 GoodTrial	 allStim	 ra
25	 4	 1	 left	 LineStimuli//allStim/stimNo109r8c6v1.5.jpg	 r	 2.227	 GoodTrial	 allStim	 ra
26	 4	 1	 right	 LineStimuli//allStim/stimNo92r14c21v2.8.jpg	 r	 2.844	 GoodTrial	 allStim	 ra
27	 4	 1	 right	 LineStimuli//allStim/stimNo90r13c21v2.8.jpg	 l	 2.229	 GoodTrial	 allStim	 ra
28	 4	 1	 left	 LineStimuli//allStim/stimNo108r3c6v3.8.jpg	 l	 2.058	 GoodTrial	 allStim	 ra
29	 4	 0	 x	 LineStimuli//allStim/stimNo141r0c0v3.3.jpg	 l	 2.771	 GoodTrial	 allStim	 ra
30	 4	 0	 x	 LineStimuli//allStim/stimNo141r0c0v4.3.jpg	 x	 1.055	 GoodTrial	 allStim	 ra
31	 4	 0	 x	 LineStimuli//allStim/stimNo157r0c0v3.8.jpg	 l	 3.218	 GoodTrial	 allStim	 ra
32	 4	 0	 x	 LineStimuli//allStim/stimNo150r0c0v2.8.jpg	 l	 4.203	 GoodTrial	 allStim	 ra
33	 4	 0	 x	 LineStimuli//allStim/stimNo148r0c0v3.8.jpg	 r	 3.276	 GoodTrial	 allStim	 ra
34	 4	 0	 x	 LineStimuli//allStim/stimNo152r0c0v4.3.jpg	 r	 2.066	 GoodTrial	 allStim	 ra
35	 4	 0	 x	 LineStimuli//allStim/stimNo135r0c0v2.3.jpg	 r	 1.912	 GoodTrial	 allStim	 ra
36	 4	 0	 x	 LineStimuli//allStim/stimNo154r0c0v2.3.jpg	 r	 1.764	 GoodTrial	 allStim	 ra
37	 4	 1	 right	 LineStimuli//allStim/stimNo119r6c19v1.5.jpg	 r	 3.336	 GoodTrial	 allStim	 ra
38	 4	 0	 x	 LineStimuli//allStim/stimNo145r0c0v4.3.jpg	 r	 2.202	 GoodTrial	 allStim	 ra
39	 4	 1	 right	 LineStimuli//allStim/stimNo107r2c17v3.3.jpg	 r	 3.903	 GoodTrial	 allStim	 ra
40	 4	 1	 right	 LineStimuli//allStim/stimNo115r10c18v4.3.jpg	 l	 2.080	 GoodTrial	 allStim	 ra
41	 4	 0	 x	 LineStimuli//allStim/stimNo148r0c0v1.5.jpg	 l	 3.740	 GoodTrial	 allStim	 ra
42	 4	 1	 left	 LineStimuli//allStim/stimNo112r3c2v2.3.jpg	 r	 3.053	 GoodTrial	 allStim	 ra
43	 4	 1	 left	 LineStimuli//allStim/stimNo98r15c5v1.8.jpg	 l	 4.568	 GoodTrial	 allStim	 ra
44	 4	 0	 x	 LineStimuli//allStim/stimNo138r0c0v1.8.jpg	 l	 2.396	 GoodTrial	 allStim	 ra
45	 4	 1	 right	 LineStimuli//allStim/stimNo87r15c13v3.3.jpg	 x	 0.904	 EARLY_RESPONSE	 allStim	 ra
46	 4	 0	 x	 LineStimuli//allStim/stimNo160r0c0v2.8.jpg	 l	 2.248	 GoodTrial	 allStim	 ra
47	 4	 0	 x	 LineStimuli//allStim/stimNo152r0c0v3.3.jpg	 l	 2.088	 GoodTrial	 allStim	 ra
48	 4	 0	 x	 LineStimuli//allStim/stimNo158r0c0v2.8.jpg	 r	 2.923	 GoodTrial	 allStim	 ra
49	 4	 0	 x	 LineStimuli//allStim/stimNo128r0c0v3.8.jpg	 r	 4.001	 GoodTrial	 allStim	 ra
50	 4	 1	 right	 LineStimuli//allStim/stimNo102r10c19v4.3.jpg	 l	 2.120	 GoodTrial	 allStim	 ra
1	 5	 1	 right	 LineStimuli//allStim/stimNo111r15c20v3.8.jpg	 l	 6.675	 GoodTrial	 allStim	 ra
2	 5	 0	 x	 LineStimuli//allStim/stimNo156r0c0v1.5.jpg	 r	 3.316	 GoodTrial	 allStim	 ra
3	 5	 0	 x	 LineStimuli//allStim/stimNo128r0c0v2.3.jpg	 r	 2.497	 GoodTrial	 allStim	 ra
4	 5	 1	 left	 LineStimuli//allStim/stimNo92r10c7v3.3.jpg	 l	 2.952	 GoodTrial	 allStim	 ra
5	 5	 1	 left	 LineStimuli//allStim/stimNo95r4c9v1.8.jpg	 r	 3.281	 GoodTrial	 allStim	 ra
6	 5	 0	 x	 LineStimuli//allStim/stimNo154r0c0v2.8.jpg	 r	 5.021	 GoodTrial	 allStim	 ra
7	 5	 0	 x	 LineStimuli//allStim/stimNo148r0c0v4.3.jpg	 l	 4.070	 GoodTrial	 allStim	 ra
8	 5	 0	 x	 LineStimuli//allStim/stimNo125r0c0v1.5.jpg	 r	 1.818	 GoodTrial	 allStim	 ra
9	 5	 0	 x	 LineStimuli//allStim/stimNo145r0c0v2.3.jpg	 r	 5.521	 GoodTrial	 allStim	 ra
10	 5	 0	 x	 LineStimuli//allStim/stimNo126r0c0v2.3.jpg	 r	 2.837	 GoodTrial	 allStim	 ra
11	 5	 0	 x	 LineStimuli//allStim/stimNo149r0c0v1.5.jpg	 r	 2.360	 GoodTrial	 allStim	 ra
12	 5	 1	 right	 LineStimuli//allStim/stimNo104r5c18v1.5.jpg	 r	 3.045	 GoodTrial	 allStim	 ra
13	 5	 0	 x	 LineStimuli//allStim/stimNo143r0c0v1.8.jpg	 r	 0.825	 EARLY_RESPONSE	 allStim	 ra
14	 5	 1	 left	 LineStimuli//allStim/stimNo94r14c9v3.3.jpg	 l	 2.380	 GoodTrial	 allStim	 ra
15	 5	 0	 x	 LineStimuli//allStim/stimNo127r0c0v1.5.jpg	 r	 5.003	 GoodTrial	 allStim	 ra
16	 5	 1	 left	 LineStimuli//allStim/stimNo103r10c4v4.3.jpg	 l	 2.112	 GoodTrial	 allStim	 ra
17	 5	 0	 x	 LineStimuli//allStim/stimNo126r0c0v2.8.jpg	 r	 6.129	 GoodTrial	 allStim	 ra
18	 5	 1	 left	 LineStimuli//allStim/stimNo117r7c8v1.5.jpg	 r	 2.712	 GoodTrial	 allStim	 ra
19	 5	 0	 x	 LineStimuli//allStim/stimNo131r0c0v3.8.jpg	 r	 3.757	 GoodTrial	 allStim	 ra
20	 5	 0	 x	 LineStimuli//allStim/stimNo147r0c0v3.3.jpg	 r	 2.028	 GoodTrial	 allStim	 ra
21	 5	 1	 right	 LineStimuli//allStim/stimNo89r3c17v4.3.jpg	 l	 2.520	 GoodTrial	 allStim	 ra
22	 5	 1	 left	 LineStimuli//allStim/stimNo116r2c2v2.3.jpg	 r	 3.304	 GoodTrial	 allStim	 ra
23	 5	 0	 x	 LineStimuli//allStim/stimNo146r0c0v1.8.jpg	 x	 1.972	 GoodTrial	 allStim	 ra
24	 5	 1	 right	 LineStimuli//allStim/stimNo111r7c17v1.5.jpg	 r	 4.182	 GoodTrial	 allStim	 ra
25	 5	 1	 left	 LineStimuli//allStim/stimNo100r8c3v4.3.jpg	 l	 2.052	 GoodTrial	 allStim	 ra
26	 5	 0	 x	 LineStimuli//allStim/stimNo154r0c0v1.8.jpg	 r	 5.490	 GoodTrial	 allStim	 ra
27	 5	 1	 left	 LineStimuli//allStim/stimNo119r3c2v2.3.jpg	 l	 3.907	 GoodTrial	 allStim	 ra
28	 5	 1	 left	 LineStimuli//allStim/stimNo108r13c6v2.8.jpg	 l	 2.065	 GoodTrial	 allStim	 ra
29	 5	 0	 x	 LineStimuli//allStim/stimNo154r0c0v4.3.jpg	 r	 3.825	 GoodTrial	 allStim	 ra
30	 5	 1	 left	 LineStimuli//allStim/stimNo113r4c4v1.5.jpg	 r	 3.185	 GoodTrial	 allStim	 ra
31	 5	 0	 x	 LineStimuli//allStim/stimNo125r0c0v3.8.jpg	 l	 5.856	 GoodTrial	 allStim	 ra
32	 5	 0	 x	 LineStimuli//allStim/stimNo137r0c0v3.3.jpg	 x	 1.069	 GoodTrial	 allStim	 ra
33	 5	 1	 left	 LineStimuli//allStim/stimNo89r11c6v1.8.jpg	 r	 2.635	 GoodTrial	 allStim	 ra
34	 5	 0	 x	 LineStimuli//allStim/stimNo146r0c0v4.3.jpg	 l	 2.733	 GoodTrial	 allStim	 ra
35	 5	 0	 x	 LineStimuli//allStim/stimNo134r0c0v3.3.jpg	 r	 2.537	 GoodTrial	 allStim	 ra
36	 5	 0	 x	 LineStimuli//allStim/stimNo131r0c0v4.3.jpg	 r	 2.447	 GoodTrial	 allStim	 ra
37	 5	 0	 x	 LineStimuli//allStim/stimNo145r0c0v3.8.jpg	 r	 2.712	 GoodTrial	 allStim	 ra
38	 5	 0	 x	 LineStimuli//allStim/stimNo158r0c0v4.3.jpg	 r	 3.140	 GoodTrial	 allStim	 ra
39	 5	 1	 left	 LineStimuli//allStim/stimNo111r15c7v3.3.jpg	 l	 2.210	 GoodTrial	 allStim	 ra
40	 5	 0	 x	 LineStimuli//allStim/stimNo139r0c0v1.5.jpg	 r	 3.017	 GoodTrial	 allStim	 ra
41	 5	 1	 right	 LineStimuli//allStim/stimNo91r10c16v3.8.jpg	 l	 2.698	 GoodTrial	 allStim	 ra
42	 5	 0	 x	 LineStimuli//allStim/stimNo138r0c0v2.3.jpg	 r	 3.281	 GoodTrial	 allStim	 ra
43	 5	 1	 left	 LineStimuli//allStim/stimNo105r5c4v2.8.jpg	 l	 2.147	 GoodTrial	 allStim	 ra
44	 5	 0	 x	 LineStimuli//allStim/stimNo143r0c0v3.8.jpg	 r	 5.886	 GoodTrial	 allStim	 ra
45	 5	 0	 x	 LineStimuli//allStim/stimNo159r0c0v1.5.jpg	 r	 6.535	 GoodTrial	 allStim	 ra
46	 5	 0	 x	 LineStimuli//allStim/stimNo149r0c0v3.3.jpg	 r	 2.394	 GoodTrial	 allStim	 ra
47	 5	 0	 x	 LineStimuli//allStim/stimNo136r0c0v4.3.jpg	 r	 2.554	 GoodTrial	 allStim	 ra
48	 5	 0	 x	 LineStimuli//allStim/stimNo160r0c0v2.3.jpg	 r	 4.740	 GoodTrial	 allStim	 ra
49	 5	 1	 left	 LineStimuli//allStim/stimNo86r14c4v1.8.jpg	 x	 2.264	 GoodTrial	 allStim	 ra
50	 5	 1	 left	 LineStimuli//allStim/stimNo91r14c4v1.8.jpg	 l	 2.656	 GoodTrial	 allStim	 ra
1	 6	 1	 right	 LineStimuli//allStim/stimNo89r3c17v4.3.jpg	 l	 3.081	 GoodTrial	 allStim	 ra
2	 6	 0	 x	 LineStimuli//allStim/stimNo149r0c0v2.3.jpg	 r	 4.809	 GoodTrial	 allStim	 ra
3	 6	 0	 x	 LineStimuli//allStim/stimNo147r0c0v3.8.jpg	 r	 5.030	 GoodTrial	 allStim	 ra
4	 6	 1	 left	 LineStimuli//allStim/stimNo83r9c9v3.8.jpg	 l	 2.256	 GoodTrial	 allStim	 ra
5	 6	 1	 right	 LineStimuli//allStim/stimNo114r10c14v3.8.jpg	 l	 1.935	 GoodTrial	 allStim	 ra
6	 6	 0	 x	 LineStimuli//allStim/stimNo146r0c0v1.8.jpg	 r	 4.454	 GoodTrial	 allStim	 ra
7	 6	 1	 left	 LineStimuli//allStim/stimNo88r15c3v2.8.jpg	 l	 2.207	 GoodTrial	 allStim	 ra
8	 6	 1	 right	 LineStimuli//allStim/stimNo93r9c20v2.8.jpg	 l	 2.537	 GoodTrial	 allStim	 ra
9	 6	 0	 x	 LineStimuli//allStim/stimNo129r0c0v3.3.jpg	 r	 2.855	 GoodTrial	 allStim	 ra
10	 6	 1	 right	 LineStimuli//allStim/stimNo81r3c21v3.8.jpg	 l	 2.169	 GoodTrial	 allStim	 ra
11	 6	 1	 left	 LineStimuli//allStim/stimNo106r13c9v1.8.jpg	 l	 2.339	 GoodTrial	 allStim	 ra
12	 6	 1	 right	 LineStimuli//allStim/stimNo99r12c16v1.8.jpg	 l	 2.529	 GoodTrial	 allStim	 ra
13	 6	 0	 x	 LineStimuli//allStim/stimNo139r0c0v2.8.jpg	 r	 3.337	 GoodTrial	 allStim	 ra
14	 6	 0	 x	 LineStimuli//allStim/stimNo128r0c0v1.8.jpg	 r	 3.328	 GoodTrial	 allStim	 ra
15	 6	 0	 x	 LineStimuli//allStim/stimNo141r0c0v4.3.jpg	 r	 3.449	 GoodTrial	 allStim	 ra
16	 6	 1	 right	 LineStimuli//allStim/stimNo96r2c13v3.8.jpg	 l	 2.554	 GoodTrial	 allStim	 ra
17	 6	 1	 right	 LineStimuli//allStim/stimNo91r11c20v2.3.jpg	 r	 4.151	 GoodTrial	 allStim	 ra
18	 6	 1	 left	 LineStimuli//allStim/stimNo109r8c6v1.5.jpg	 r	 2.394	 GoodTrial	 allStim	 ra
19	 6	 0	 x	 LineStimuli//allStim/stimNo157r0c0v1.8.jpg	 l	 4.323	 GoodTrial	 allStim	 ra
20	 6	 0	 x	 LineStimuli//allStim/stimNo124r0c0v4.3.jpg	 r	 3.980	 GoodTrial	 allStim	 ra
21	 6	 1	 right	 LineStimuli//allStim/stimNo109r2c17v2.3.jpg	 r	 4.448	 GoodTrial	 allStim	 ra
22	 6	 1	 left	 LineStimuli//allStim/stimNo101r5c5v4.3.jpg	 l	 2.297	 GoodTrial	 allStim	 ra
23	 6	 1	 right	 LineStimuli//allStim/stimNo115r9c14v2.8.jpg	 l	 3.245	 GoodTrial	 allStim	 ra
24	 6	 1	 right	 LineStimuli//allStim/stimNo111r7c17v1.5.jpg	 l	 4.985	 GoodTrial	 allStim	 ra
25	 6	 0	 x	 LineStimuli//allStim/stimNo148r0c0v1.5.jpg	 l	 4.573	 GoodTrial	 allStim	 ra
26	 6	 0	 x	 LineStimuli//allStim/stimNo133r0c0v3.3.jpg	 r	 4.039	 GoodTrial	 allStim	 ra
27	 6	 1	 left	 LineStimuli//allStim/stimNo93r3c5v3.3.jpg	 l	 2.056	 GoodTrial	 allStim	 ra
28	 6	 1	 right	 LineStimuli//allStim/stimNo111r15c20v3.8.jpg	 r	 4.018	 GoodTrial	 allStim	 ra
29	 6	 1	 right	 LineStimuli//allStim/stimNo98r4c21v3.3.jpg	 l	 2.563	 GoodTrial	 allStim	 ra
30	 6	 0	 x	 LineStimuli//allStim/stimNo147r0c0v2.3.jpg	 r	 4.690	 GoodTrial	 allStim	 ra
31	 6	 0	 x	 LineStimuli//allStim/stimNo125r0c0v2.3.jpg	 r	 4.689	 GoodTrial	 allStim	 ra
32	 6	 0	 x	 LineStimuli//allStim/stimNo128r0c0v3.3.jpg	 r	 2.332	 GoodTrial	 allStim	 ra
33	 6	 1	 right	 LineStimuli//allStim/stimNo117r11c17v2.8.jpg	 l	 2.183	 GoodTrial	 allStim	 ra
34	 6	 0	 x	 LineStimuli//allStim/stimNo126r0c0v4.3.jpg	 r	 2.955	 GoodTrial	 allStim	 ra
35	 6	 0	 x	 LineStimuli//allStim/stimNo150r0c0v2.8.jpg	 r	 3.604	 GoodTrial	 allStim	 ra
36	 6	 1	 left	 LineStimuli//allStim/stimNo95r11c9v4.3.jpg	 l	 2.015	 GoodTrial	 allStim	 ra
37	 6	 0	 x	 LineStimuli//allStim/stimNo143r0c0v2.3.jpg	 r	 5.075	 GoodTrial	 allStim	 ra
38	 6	 0	 x	 LineStimuli//allStim/stimNo154r0c0v2.8.jpg	 r	 4.329	 GoodTrial	 allStim	 ra
39	 6	 1	 right	 LineStimuli//allStim/stimNo115r10c18v4.3.jpg	 l	 2.312	 GoodTrial	 allStim	 ra
40	 6	 1	 left	 LineStimuli//allStim/stimNo91r2c3v2.8.jpg	 r	 2.968	 GoodTrial	 allStim	 ra
41	 6	 1	 right	 LineStimuli//allStim/stimNo118r9c20v1.5.jpg	 r	 3.857	 GoodTrial	 allStim	 ra
42	 6	 1	 left	 LineStimuli//allStim/stimNo120r14c9v1.8.jpg	 x	 0.456	 EARLY_RESPONSE	 allStim	 ra
43	 6	 1	 right	 LineStimuli//allStim/stimNo99r14c18v4.3.jpg	 l	 2.074	 GoodTrial	 allStim	 ra
44	 6	 1	 left	 LineStimuli//allStim/stimNo98r2c9v3.8.jpg	 l	 2.404	 GoodTrial	 allStim	 ra
45	 6	 0	 x	 LineStimuli//allStim/stimNo155r0c0v3.8.jpg	 r	 3.992	 GoodTrial	 allStim	 ra
46	 6	 1	 left	 LineStimuli//allStim/stimNo118r4c8v3.8.jpg	 l	 2.158	 GoodTrial	 allStim	 ra
47	 6	 1	 right	 LineStimuli//allStim/stimNo106r13c20v2.8.jpg	 l	 2.209	 GoodTrial	 allStim	 ra
48	 6	 1	 right	 LineStimuli//allStim/stimNo86r6c16v1.5.jpg	 l	 4.950	 GoodTrial	 allStim	 ra
49	 6	 1	 left	 LineStimuli//allStim/stimNo104r8c6v2.8.jpg	 x	 0.487	 EARLY_RESPONSE	 allStim	 ra
50	 6	 1	 right	 LineStimuli//allStim/stimNo93r3c17v1.8.jpg	 l	 2.465	 GoodTrial	 allStim	 ra
1	 7	 1	 left	 LineStimuli//allStim/stimNo120r14c9v1.8.jpg	 l	 2.682	 GoodTrial	 allStim	 ra
2	 7	 0	 x	 LineStimuli//allStim/stimNo136r0c0v1.5.jpg	 r	 4.425	 GoodTrial	 allStim	 ra
3	 7	 1	 right	 LineStimuli//allStim/stimNo117r6c17v3.8.jpg	 x	 0.520	 EARLY_RESPONSE	 allStim	 ra
4	 7	 0	 x	 LineStimuli//allStim/stimNo136r0c0v2.3.jpg	 r	 2.987	 GoodTrial	 allStim	 ra
5	 7	 0	 x	 LineStimuli//allStim/stimNo154r0c0v2.8.jpg	 r	 2.058	 GoodTrial	 allStim	 ra
6	 7	 0	 x	 LineStimuli//allStim/stimNo153r0c0v4.3.jpg	 x	 0.360	 EARLY_RESPONSE	 allStim	 ra
7	 7	 0	 x	 LineStimuli//allStim/stimNo125r0c0v4.3.jpg	 r	 2.210	 GoodTrial	 allStim	 ra
8	 7	 1	 left	 LineStimuli//allStim/stimNo103r6c6v3.3.jpg	 x	 0.231	 EARLY_RESPONSE	 allStim	 ra
9	 7	 1	 right	 LineStimuli//allStim/stimNo92r14c21v2.8.jpg	 l	 4.360	 GoodTrial	 allStim	 ra
10	 7	 1	 left	 LineStimuli//allStim/stimNo94r10c6v1.5.jpg	 r	 4.997	 GoodTrial	 allStim	 ra
11	 7	 0	 x	 LineStimuli//allStim/stimNo141r0c0v1.8.jpg	 x	 0.545	 EARLY_RESPONSE	 allStim	 ra
12	 7	 1	 right	 LineStimuli//allStim/stimNo89r3c17v4.3.jpg	 l	 2.128	 GoodTrial	 allStim	 ra
13	 7	 0	 x	 LineStimuli//allStim/stimNo121r0c0v2.3.jpg	 r	 3.608	 GoodTrial	 allStim	 ra
14	 7	 1	 left	 LineStimuli//allStim/stimNo100r8c3v4.3.jpg	 x	 0.576	 EARLY_RESPONSE	 allStim	 ra
15	 7	 1	 right	 LineStimuli//allStim/stimNo110r7c14v2.8.jpg	 l	 2.264	 GoodTrial	 allStim	 ra
16	 7	 1	 right	 LineStimuli//allStim/stimNo99r12c16v1.8.jpg	 l	 2.379	 GoodTrial	 allStim	 ra
17	 7	 0	 x	 LineStimuli//allStim/stimNo127r0c0v3.8.jpg	 l	 2.171	 GoodTrial	 allStim	 ra
18	 7	 0	 x	 LineStimuli//allStim/stimNo123r0c0v3.3.jpg	 x	 0.368	 EARLY_RESPONSE	 allStim	 ra
19	 7	 1	 right	 LineStimuli//allStim/stimNo114r8c13v1.8.jpg	 l	 2.076	 GoodTrial	 allStim	 ra
20	 7	 0	 x	 LineStimuli//allStim/stimNo130r0c0v1.5.jpg	 r	 4.109	 GoodTrial	 allStim	 ra
21	 7	 0	 x	 LineStimuli//allStim/stimNo144r0c0v3.3.jpg	 r	 2.682	 GoodTrial	 allStim	 ra
22	 7	 0	 x	 LineStimuli//allStim/stimNo158r0c0v2.3.jpg	 r	 3.507	 GoodTrial	 allStim	 ra
23	 7	 0	 x	 LineStimuli//allStim/stimNo123r0c0v4.3.jpg	 x	 0.488	 EARLY_RESPONSE	 allStim	 ra
24	 7	 0	 x	 LineStimuli//allStim/stimNo126r0c0v1.5.jpg	 r	 3.535	 GoodTrial	 allStim	 ra
25	 7	 1	 left	 LineStimuli//allStim/stimNo108r3c6v3.8.jpg	 x	 0.345	 EARLY_RESPONSE	 allStim	 ra
26	 7	 1	 right	 LineStimuli//allStim/stimNo99r2c13v3.8.jpg	 l	 2.120	 GoodTrial	 allStim	 ra
27	 7	 0	 x	 LineStimuli//allStim/stimNo154r0c0v1.5.jpg	 x	 0.264	 EARLY_RESPONSE	 allStim	 ra
28	 7	 1	 left	 LineStimuli//allStim/stimNo87r14c2v1.8.jpg	 r	 4.061	 GoodTrial	 allStim	 ra
29	 7	 0	 x	 LineStimuli//allStim/stimNo156r0c0v3.3.jpg	 x	 0.304	 EARLY_RESPONSE	 allStim	 ra
30	 7	 1	 left	 LineStimuli//allStim/stimNo83r8c3v3.3.jpg	 l	 2.272	 GoodTrial	 allStim	 ra
31	 7	 0	 x	 LineStimuli//allStim/stimNo138r0c0v2.3.jpg	 x	 0.241	 EARLY_RESPONSE	 allStim	 ra
32	 7	 1	 right	 LineStimuli//allStim/stimNo90r15c13v1.8.jpg	 r	 5.513	 GoodTrial	 allStim	 ra
33	 7	 0	 x	 LineStimuli//allStim/stimNo121r0c0v2.8.jpg	 x	 0.960	 EARLY_RESPONSE	 allStim	 ra
34	 7	 1	 left	 LineStimuli//allStim/stimNo83r12c4v2.8.jpg	 l	 2.263	 GoodTrial	 allStim	 ra
35	 7	 1	 left	 LineStimuli//allStim/stimNo88r10c3v4.3.jpg	 l	 1.727	 GoodTrial	 allStim	 ra
36	 7	 1	 left	 LineStimuli//allStim/stimNo90r10c4v4.3.jpg	 l	 1.771	 GoodTrial	 allStim	 ra
37	 7	 0	 x	 LineStimuli//allStim/stimNo135r0c0v1.5.jpg	 r	 2.486	 GoodTrial	 allStim	 ra
38	 7	 0	 x	 LineStimuli//allStim/stimNo150r0c0v1.8.jpg	 r	 2.769	 GoodTrial	 allStim	 ra
39	 7	 0	 x	 LineStimuli//allStim/stimNo156r0c0v2.3.jpg	 r	 3.319	 GoodTrial	 allStim	 ra
40	 7	 0	 x	 LineStimuli//allStim/stimNo154r0c0v1.8.jpg	 x	 0.168	 EARLY_RESPONSE	 allStim	 ra
41	 7	 0	 x	 LineStimuli//allStim/stimNo128r0c0v3.8.jpg	 r	 2.904	 GoodTrial	 allStim	 ra
42	 7	 0	 x	 LineStimuli//allStim/stimNo137r0c0v4.3.jpg	 x	 0.168	 EARLY_RESPONSE	 allStim	 ra
43	 7	 0	 x	 LineStimuli//allStim/stimNo155r0c0v3.8.jpg	 r	 3.303	 GoodTrial	 allStim	 ra
44	 7	 0	 x	 LineStimuli//allStim/stimNo132r0c0v2.8.jpg	 x	 0.119	 EARLY_RESPONSE	 allStim	 ra
45	 7	 0	 x	 LineStimuli//allStim/stimNo133r0c0v4.3.jpg	 r	 3.752	 GoodTrial	 allStim	 ra
46	 7	 1	 right	 LineStimuli//allStim/stimNo93r14c18v1.5.jpg	 x	 0.248	 EARLY_RESPONSE	 allStim	 ra
47	 7	 1	 right	 LineStimuli//allStim/stimNo82r11c20v3.3.jpg	 l	 2.704	 GoodTrial	 allStim	 ra
48	 7	 0	 x	 LineStimuli//allStim/stimNo130r0c0v1.8.jpg	 r	 2.944	 GoodTrial	 allStim	 ra
49	 7	 0	 x	 LineStimuli//allStim/stimNo145r0c0v2.3.jpg	 r	 4.029	 GoodTrial	 allStim	 ra
50	 7	 1	 left	 LineStimuli//allStim/stimNo119r3c2v2.3.jpg	 x	 0.320	 EARLY_RESPONSE	 allStim	 ra
