Trial	Block	Target_pr	Target_side	Name	Key	RT	Message	Block_Type	Condition
1	 1	 1	 left	 LineStimuli//allStim/stimNo120r5c3v3.8.jpg	 l	 3.520	 GoodTrial	 allStim	 ra
2	 1	 1	 right	 LineStimuli//allStim/stimNo107r2c17v3.3.jpg	 l	 2.261	 GoodTrial	 allStim	 ra
3	 1	 0	 x	 LineStimuli//allStim/stimNo122r0c0v1.5.jpg	 r	 4.464	 GoodTrial	 allStim	 ra
4	 1	 1	 right	 LineStimuli//allStim/stimNo82r11c20v3.3.jpg	 l	 1.895	 GoodTrial	 allStim	 ra
5	 1	 0	 x	 LineStimuli//allStim/stimNo143r0c0v1.5.jpg	 r	 9.589	 GoodTrial	 allStim	 ra
6	 1	 1	 right	 LineStimuli//allStim/stimNo114r11c21v3.3.jpg	 l	 1.736	 GoodTrial	 allStim	 ra
7	 1	 0	 x	 LineStimuli//allStim/stimNo151r0c0v2.8.jpg	 r	 3.788	 GoodTrial	 allStim	 ra
8	 1	 1	 right	 LineStimuli//allStim/stimNo109r7c17v1.8.jpg	 l	 1.937	 GoodTrial	 allStim	 ra
9	 1	 1	 left	 LineStimuli//allStim/stimNo86r7c7v3.8.jpg	 l	 1.751	 GoodTrial	 allStim	 ra
10	 1	 1	 left	 LineStimuli//allStim/stimNo81r6c8v1.8.jpg	 l	 1.972	 GoodTrial	 allStim	 ra
11	 1	 1	 right	 LineStimuli//allStim/stimNo103r3c19v2.8.jpg	 l	 1.679	 GoodTrial	 allStim	 ra
12	 1	 1	 left	 LineStimuli//allStim/stimNo91r2c3v2.8.jpg	 l	 1.935	 GoodTrial	 allStim	 ra
13	 1	 0	 x	 LineStimuli//allStim/stimNo138r0c0v4.3.jpg	 r	 2.154	 GoodTrial	 allStim	 ra
14	 1	 1	 right	 LineStimuli//allStim/stimNo116r5c13v4.3.jpg	 l	 1.612	 GoodTrial	 allStim	 ra
15	 1	 0	 x	 LineStimuli//allStim/stimNo140r0c0v2.3.jpg	 r	 2.749	 GoodTrial	 allStim	 ra
16	 1	 0	 x	 LineStimuli//allStim/stimNo140r0c0v1.8.jpg	 r	 2.105	 GoodTrial	 allStim	 ra
17	 1	 0	 x	 LineStimuli//allStim/stimNo152r0c0v3.3.jpg	 r	 2.212	 GoodTrial	 allStim	 ra
18	 1	 0	 x	 LineStimuli//allStim/stimNo126r0c0v4.3.jpg	 r	 2.177	 GoodTrial	 allStim	 ra
19	 1	 1	 left	 LineStimuli//allStim/stimNo115r14c10v3.8.jpg	 l	 2.712	 GoodTrial	 allStim	 ra
20	 1	 1	 left	 LineStimuli//allStim/stimNo113r9c5v2.8.jpg	 l	 1.909	 GoodTrial	 allStim	 ra
21	 1	 1	 left	 LineStimuli//allStim/stimNo93r8c2v3.8.jpg	 l	 1.857	 GoodTrial	 allStim	 ra
22	 1	 1	 left	 LineStimuli//allStim/stimNo115r3c4v3.3.jpg	 l	 1.643	 GoodTrial	 allStim	 ra
23	 1	 1	 left	 LineStimuli//allStim/stimNo108r5c8v4.3.jpg	 l	 1.564	 GoodTrial	 allStim	 ra
24	 1	 1	 right	 LineStimuli//allStim/stimNo107r2c19v1.5.jpg	 r	 2.179	 GoodTrial	 allStim	 ra
25	 1	 0	 x	 LineStimuli//allStim/stimNo143r0c0v3.8.jpg	 r	 3.839	 GoodTrial	 allStim	 ra
26	 1	 0	 x	 LineStimuli//allStim/stimNo136r0c0v1.5.jpg	 r	 4.790	 GoodTrial	 allStim	 ra
27	 1	 1	 left	 LineStimuli//allStim/stimNo96r3c3v2.3.jpg	 l	 1.856	 GoodTrial	 allStim	 ra
28	 1	 1	 right	 LineStimuli//allStim/stimNo95r9c18v2.8.jpg	 l	 1.849	 GoodTrial	 allStim	 ra
29	 1	 0	 x	 LineStimuli//allStim/stimNo125r0c0v2.3.jpg	 r	 3.311	 GoodTrial	 allStim	 ra
30	 1	 1	 right	 LineStimuli//allStim/stimNo103r13c17v1.5.jpg	 r	 3.488	 GoodTrial	 allStim	 ra
31	 1	 1	 left	 LineStimuli//allStim/stimNo83r9c9v3.8.jpg	 l	 1.769	 GoodTrial	 allStim	 ra
32	 1	 1	 right	 LineStimuli//allStim/stimNo118r5c16v2.8.jpg	 l	 1.646	 GoodTrial	 allStim	 ra
33	 1	 1	 right	 LineStimuli//allStim/stimNo102r10c19v4.3.jpg	 l	 1.716	 GoodTrial	 allStim	 ra
34	 1	 1	 right	 LineStimuli//allStim/stimNo85r4c15v2.3.jpg	 l	 1.704	 GoodTrial	 allStim	 ra
35	 1	 1	 right	 LineStimuli//allStim/stimNo85r4c15v2.8.jpg	 l	 1.672	 GoodTrial	 allStim	 ra
36	 1	 1	 left	 LineStimuli//allStim/stimNo107r5c4v1.8.jpg	 l	 3.794	 GoodTrial	 allStim	 ra
37	 1	 1	 right	 LineStimuli//allStim/stimNo115r10c18v4.3.jpg	 l	 1.652	 GoodTrial	 allStim	 ra
38	 1	 0	 x	 LineStimuli//allStim/stimNo127r0c0v2.3.jpg	 r	 3.742	 GoodTrial	 allStim	 ra
39	 1	 0	 x	 LineStimuli//allStim/stimNo123r0c0v2.3.jpg	 r	 3.208	 GoodTrial	 allStim	 ra
40	 1	 1	 left	 LineStimuli//allStim/stimNo117r2c5v3.3.jpg	 l	 1.840	 GoodTrial	 allStim	 ra
41	 1	 0	 x	 LineStimuli//allStim/stimNo158r0c0v1.5.jpg	 r	 4.457	 GoodTrial	 allStim	 ra
42	 1	 1	 left	 LineStimuli//allStim/stimNo105r5c4v2.8.jpg	 l	 1.732	 GoodTrial	 allStim	 ra
43	 1	 1	 left	 LineStimuli//allStim/stimNo115r5c9v1.8.jpg	 l	 1.855	 GoodTrial	 allStim	 ra
44	 1	 0	 x	 LineStimuli//allStim/stimNo126r0c0v3.8.jpg	 r	 2.206	 GoodTrial	 allStim	 ra
45	 1	 1	 right	 LineStimuli//allStim/stimNo108r13c15v1.5.jpg	 r	 3.169	 GoodTrial	 allStim	 ra
46	 1	 0	 x	 LineStimuli//allStim/stimNo158r0c0v3.8.jpg	 r	 4.703	 GoodTrial	 allStim	 ra
47	 1	 0	 x	 LineStimuli//allStim/stimNo150r0c0v2.8.jpg	 r	 3.687	 GoodTrial	 allStim	 ra
48	 1	 0	 x	 LineStimuli//allStim/stimNo124r0c0v2.3.jpg	 r	 4.306	 GoodTrial	 allStim	 ra
49	 1	 1	 right	 LineStimuli//allStim/stimNo109r15c15v4.3.jpg	 l	 1.918	 GoodTrial	 allStim	 ra
50	 1	 0	 x	 LineStimuli//allStim/stimNo152r0c0v2.8.jpg	 r	 4.175	 GoodTrial	 allStim	 ra
1	 2	 1	 left	 LineStimuli//allStim/stimNo114r4c4v1.5.jpg	 l	 1.895	 GoodTrial	 allStim	 ra
2	 2	 1	 left	 LineStimuli//allStim/stimNo103r15c10v1.8.jpg	 l	 3.439	 GoodTrial	 allStim	 ra
3	 2	 1	 right	 LineStimuli//allStim/stimNo109r2c17v2.3.jpg	 l	 1.779	 GoodTrial	 allStim	 ra
4	 2	 0	 x	 LineStimuli//allStim/stimNo126r0c0v1.8.jpg	 r	 4.329	 GoodTrial	 allStim	 ra
5	 2	 1	 right	 LineStimuli//allStim/stimNo111r15c20v3.8.jpg	 l	 1.952	 GoodTrial	 allStim	 ra
6	 2	 0	 x	 LineStimuli//allStim/stimNo129r0c0v2.8.jpg	 r	 3.762	 GoodTrial	 allStim	 ra
7	 2	 0	 x	 LineStimuli//allStim/stimNo156r0c0v2.8.jpg	 r	 3.348	 GoodTrial	 allStim	 ra
8	 2	 1	 left	 LineStimuli//allStim/stimNo119r15c7v3.3.jpg	 l	 1.962	 GoodTrial	 allStim	 ra
9	 2	 0	 x	 LineStimuli//allStim/stimNo152r0c0v1.8.jpg	 r	 4.774	 GoodTrial	 allStim	 ra
10	 2	 1	 right	 LineStimuli//allStim/stimNo82r11c20v3.3.jpg	 l	 1.618	 GoodTrial	 allStim	 ra
11	 2	 1	 right	 LineStimuli//allStim/stimNo114r10c15v4.3.jpg	 l	 1.680	 GoodTrial	 allStim	 ra
12	 2	 1	 left	 LineStimuli//allStim/stimNo116r2c2v2.3.jpg	 l	 2.528	 GoodTrial	 allStim	 ra
13	 2	 1	 left	 LineStimuli//allStim/stimNo96r3c3v2.3.jpg	 l	 1.635	 GoodTrial	 allStim	 ra
14	 2	 1	 right	 LineStimuli//allStim/stimNo84r15c14v2.3.jpg	 l	 2.117	 GoodTrial	 allStim	 ra
15	 2	 1	 right	 LineStimuli//allStim/stimNo112r5c15v3.3.jpg	 l	 1.617	 GoodTrial	 allStim	 ra
16	 2	 0	 x	 LineStimuli//allStim/stimNo144r0c0v2.8.jpg	 l	 3.449	 GoodTrial	 allStim	 ra
17	 2	 0	 x	 LineStimuli//allStim/stimNo155r0c0v3.3.jpg	 r	 6.670	 GoodTrial	 allStim	 ra
18	 2	 0	 x	 LineStimuli//allStim/stimNo157r0c0v4.3.jpg	 r	 4.690	 GoodTrial	 allStim	 ra
19	 2	 1	 right	 LineStimuli//allStim/stimNo118r11c15v1.8.jpg	 l	 3.409	 GoodTrial	 allStim	 ra
20	 2	 1	 left	 LineStimuli//allStim/stimNo94r13c7v2.8.jpg	 l	 1.849	 GoodTrial	 allStim	 ra
21	 2	 1	 right	 LineStimuli//allStim/stimNo114r8c13v1.8.jpg	 l	 1.733	 GoodTrial	 allStim	 ra
22	 2	 1	 left	 LineStimuli//allStim/stimNo83r14c4v2.3.jpg	 l	 2.038	 GoodTrial	 allStim	 ra
23	 2	 0	 x	 LineStimuli//allStim/stimNo122r0c0v1.5.jpg	 r	 6.037	 GoodTrial	 allStim	 ra
24	 2	 1	 left	 LineStimuli//allStim/stimNo83r9c9v3.8.jpg	 l	 1.720	 GoodTrial	 allStim	 ra
25	 2	 0	 x	 LineStimuli//allStim/stimNo146r0c0v1.5.jpg	 r	 6.302	 GoodTrial	 allStim	 ra
26	 2	 0	 x	 LineStimuli//allStim/stimNo155r0c0v1.8.jpg	 r	 5.382	 GoodTrial	 allStim	 ra
27	 2	 0	 x	 LineStimuli//allStim/stimNo140r0c0v2.3.jpg	 r	 4.009	 GoodTrial	 allStim	 ra
28	 2	 1	 right	 LineStimuli//allStim/stimNo87r6c13v3.8.jpg	 l	 1.694	 GoodTrial	 allStim	 ra
29	 2	 1	 left	 LineStimuli//allStim/stimNo113r14c9v3.8.jpg	 l	 1.899	 GoodTrial	 allStim	 ra
30	 2	 0	 x	 LineStimuli//allStim/stimNo142r0c0v2.8.jpg	 r	 5.048	 GoodTrial	 allStim	 ra
31	 2	 1	 right	 LineStimuli//allStim/stimNo111r4c21v1.8.jpg	 l	 2.200	 GoodTrial	 allStim	 ra
32	 2	 0	 x	 LineStimuli//allStim/stimNo157r0c0v1.8.jpg	 r	 5.028	 GoodTrial	 allStim	 ra
33	 2	 0	 x	 LineStimuli//allStim/stimNo123r0c0v1.5.jpg	 r	 5.427	 GoodTrial	 allStim	 ra
34	 2	 0	 x	 LineStimuli//allStim/stimNo148r0c0v2.8.jpg	 r	 4.583	 GoodTrial	 allStim	 ra
35	 2	 0	 x	 LineStimuli//allStim/stimNo141r0c0v2.8.jpg	 r	 3.157	 GoodTrial	 allStim	 ra
36	 2	 0	 x	 LineStimuli//allStim/stimNo137r0c0v2.8.jpg	 r	 3.026	 GoodTrial	 allStim	 ra
37	 2	 0	 x	 LineStimuli//allStim/stimNo145r0c0v4.3.jpg	 r	 2.781	 GoodTrial	 allStim	 ra
38	 2	 0	 x	 LineStimuli//allStim/stimNo155r0c0v2.3.jpg	 r	 3.881	 GoodTrial	 allStim	 ra
39	 2	 1	 right	 LineStimuli//allStim/stimNo89r5c21v3.3.jpg	 l	 2.160	 GoodTrial	 allStim	 ra
40	 2	 1	 right	 LineStimuli//allStim/stimNo103r13c17v1.5.jpg	 l	 4.076	 GoodTrial	 allStim	 ra
41	 2	 1	 right	 LineStimuli//allStim/stimNo110r7c14v2.8.jpg	 l	 1.698	 GoodTrial	 allStim	 ra
42	 2	 1	 left	 LineStimuli//allStim/stimNo108r13c2v3.3.jpg	 l	 1.813	 GoodTrial	 allStim	 ra
43	 2	 1	 left	 LineStimuli//allStim/stimNo104r12c8v3.8.jpg	 l	 1.555	 GoodTrial	 allStim	 ra
44	 2	 1	 left	 LineStimuli//allStim/stimNo85r2c5v1.5.jpg	 r	 4.009	 GoodTrial	 allStim	 ra
45	 2	 0	 x	 LineStimuli//allStim/stimNo138r0c0v1.8.jpg	 r	 5.324	 GoodTrial	 allStim	 ra
46	 2	 1	 left	 LineStimuli//allStim/stimNo118r4c8v3.8.jpg	 l	 1.728	 GoodTrial	 allStim	 ra
47	 2	 1	 left	 LineStimuli//allStim/stimNo91r2c3v2.8.jpg	 l	 2.175	 GoodTrial	 allStim	 ra
48	 2	 1	 right	 LineStimuli//allStim/stimNo118r11c13v4.3.jpg	 l	 1.808	 GoodTrial	 allStim	 ra
49	 2	 1	 left	 LineStimuli//allStim/stimNo105r14c6v4.3.jpg	 l	 1.625	 GoodTrial	 allStim	 ra
50	 2	 1	 right	 LineStimuli//allStim/stimNo96r4c19v4.3.jpg	 l	 1.629	 GoodTrial	 allStim	 ra
1	 3	 1	 left	 LineStimuli//allStim/stimNo94r13c7v2.8.jpg	 l	 1.911	 GoodTrial	 allStim	 ra
2	 3	 1	 right	 LineStimuli//allStim/stimNo111r7c17v1.5.jpg	 l	 2.556	 GoodTrial	 allStim	 ra
3	 3	 0	 x	 LineStimuli//allStim/stimNo143r0c0v3.3.jpg	 r	 3.645	 GoodTrial	 allStim	 ra
4	 3	 1	 right	 LineStimuli//allStim/stimNo89r5c21v3.3.jpg	 l	 1.722	 GoodTrial	 allStim	 ra
5	 3	 1	 left	 LineStimuli//allStim/stimNo120r5c3v3.8.jpg	 l	 1.627	 GoodTrial	 allStim	 ra
6	 3	 1	 right	 LineStimuli//allStim/stimNo116r5c13v4.3.jpg	 l	 1.583	 GoodTrial	 allStim	 ra
7	 3	 0	 x	 LineStimuli//allStim/stimNo121r0c0v3.8.jpg	 r	 4.225	 GoodTrial	 allStim	 ra
8	 3	 0	 x	 LineStimuli//allStim/stimNo145r0c0v4.3.jpg	 r	 2.671	 GoodTrial	 allStim	 ra
9	 3	 1	 left	 LineStimuli//allStim/stimNo105r2c6v3.8.jpg	 l	 1.916	 GoodTrial	 allStim	 ra
10	 3	 0	 x	 LineStimuli//allStim/stimNo138r0c0v3.8.jpg	 r	 2.543	 GoodTrial	 allStim	 ra
11	 3	 1	 left	 LineStimuli//allStim/stimNo83r9c9v3.8.jpg	 l	 1.816	 GoodTrial	 allStim	 ra
12	 3	 1	 right	 LineStimuli//allStim/stimNo118r5c16v2.8.jpg	 l	 1.710	 GoodTrial	 allStim	 ra
13	 3	 0	 x	 LineStimuli//allStim/stimNo158r0c0v4.3.jpg	 r	 3.671	 GoodTrial	 allStim	 ra
14	 3	 0	 x	 LineStimuli//allStim/stimNo132r0c0v4.3.jpg	 r	 2.633	 GoodTrial	 allStim	 ra
15	 3	 1	 left	 LineStimuli//allStim/stimNo85r2c5v1.5.jpg	 r	 4.550	 GoodTrial	 allStim	 ra
16	 3	 1	 right	 LineStimuli//allStim/stimNo84r9c19v3.8.jpg	 l	 2.058	 GoodTrial	 allStim	 ra
17	 3	 0	 x	 LineStimuli//allStim/stimNo144r0c0v2.8.jpg	 r	 5.537	 GoodTrial	 allStim	 ra
18	 3	 1	 right	 LineStimuli//allStim/stimNo90r8c17v3.8.jpg	 l	 1.741	 GoodTrial	 allStim	 ra
19	 3	 0	 x	 LineStimuli//allStim/stimNo137r0c0v4.3.jpg	 r	 4.984	 GoodTrial	 allStim	 ra
20	 3	 1	 right	 LineStimuli//allStim/stimNo100r9c13v1.8.jpg	 l	 2.257	 GoodTrial	 allStim	 ra
21	 3	 1	 right	 LineStimuli//allStim/stimNo96r4c19v4.3.jpg	 l	 1.639	 GoodTrial	 allStim	 ra
22	 3	 1	 right	 LineStimuli//allStim/stimNo99r12c16v1.8.jpg	 l	 1.975	 GoodTrial	 allStim	 ra
23	 3	 0	 x	 LineStimuli//allStim/stimNo150r0c0v1.8.jpg	 r	 6.178	 GoodTrial	 allStim	 ra
24	 3	 1	 left	 LineStimuli//allStim/stimNo116r4c7v2.8.jpg	 l	 1.716	 GoodTrial	 allStim	 ra
25	 3	 1	 left	 LineStimuli//allStim/stimNo95r13c9v2.3.jpg	 l	 2.561	 GoodTrial	 allStim	 ra
26	 3	 1	 right	 LineStimuli//allStim/stimNo97r6c13v3.3.jpg	 l	 1.617	 GoodTrial	 allStim	 ra
27	 3	 0	 x	 LineStimuli//allStim/stimNo135r0c0v4.3.jpg	 r	 2.757	 GoodTrial	 allStim	 ra
28	 3	 1	 right	 LineStimuli//allStim/stimNo102r6c18v2.3.jpg	 l	 1.666	 GoodTrial	 allStim	 ra
29	 3	 0	 x	 LineStimuli//allStim/stimNo151r0c0v1.5.jpg	 r	 4.537	 GoodTrial	 allStim	 ra
30	 3	 1	 left	 LineStimuli//allStim/stimNo113r4c4v1.5.jpg	 l	 2.823	 GoodTrial	 allStim	 ra
31	 3	 1	 left	 LineStimuli//allStim/stimNo90r2c9v3.3.jpg	 l	 1.705	 GoodTrial	 allStim	 ra
32	 3	 0	 x	 LineStimuli//allStim/stimNo132r0c0v2.3.jpg	 r	 3.165	 GoodTrial	 allStim	 ra
33	 3	 0	 x	 LineStimuli//allStim/stimNo134r0c0v1.5.jpg	 r	 3.161	 GoodTrial	 allStim	 ra
34	 3	 0	 x	 LineStimuli//allStim/stimNo160r0c0v1.5.jpg	 r	 2.976	 GoodTrial	 allStim	 ra
35	 3	 0	 x	 LineStimuli//allStim/stimNo160r0c0v4.3.jpg	 r	 2.753	 GoodTrial	 allStim	 ra
36	 3	 0	 x	 LineStimuli//allStim/stimNo143r0c0v1.5.jpg	 r	 3.423	 GoodTrial	 allStim	 ra
37	 3	 0	 x	 LineStimuli//allStim/stimNo134r0c0v4.3.jpg	 r	 2.227	 GoodTrial	 allStim	 ra
38	 3	 1	 right	 LineStimuli//allStim/stimNo102r10c19v4.3.jpg	 l	 1.836	 GoodTrial	 allStim	 ra
39	 3	 0	 x	 LineStimuli//allStim/stimNo136r0c0v1.8.jpg	 r	 4.473	 GoodTrial	 allStim	 ra
40	 3	 1	 right	 LineStimuli//allStim/stimNo82r11c20v3.3.jpg	 l	 1.765	 GoodTrial	 allStim	 ra
41	 3	 0	 x	 LineStimuli//allStim/stimNo124r0c0v4.3.jpg	 r	 2.256	 GoodTrial	 allStim	 ra
42	 3	 1	 right	 LineStimuli//allStim/stimNo105r3c18v1.5.jpg	 l	 3.378	 GoodTrial	 allStim	 ra
43	 3	 1	 right	 LineStimuli//allStim/stimNo114r10c14v3.8.jpg	 l	 1.824	 GoodTrial	 allStim	 ra
44	 3	 1	 left	 LineStimuli//allStim/stimNo91r14c4v1.8.jpg	 l	 2.539	 GoodTrial	 allStim	 ra
45	 3	 1	 left	 LineStimuli//allStim/stimNo120r14c9v1.8.jpg	 r	 3.835	 GoodTrial	 allStim	 ra
46	 3	 0	 x	 LineStimuli//allStim/stimNo134r0c0v2.8.jpg	 r	 7.952	 GoodTrial	 allStim	 ra
47	 3	 1	 right	 LineStimuli//allStim/stimNo114r8c19v2.8.jpg	 l	 1.920	 GoodTrial	 allStim	 ra
48	 3	 1	 left	 LineStimuli//allStim/stimNo91r2c3v2.8.jpg	 l	 2.080	 GoodTrial	 allStim	 ra
49	 3	 0	 x	 LineStimuli//allStim/stimNo137r0c0v1.5.jpg	 r	 5.850	 GoodTrial	 allStim	 ra
50	 3	 1	 left	 LineStimuli//allStim/stimNo106r8c2v4.3.jpg	 l	 1.779	 GoodTrial	 allStim	 ra
1	 4	 1	 right	 LineStimuli//allStim/stimNo88r10c17v3.8.jpg	 x	 0.808	 EARLY_RESPONSE	 allStim	 ra
2	 4	 1	 left	 LineStimuli//allStim/stimNo106r9c9v3.3.jpg	 l	 1.876	 GoodTrial	 allStim	 ra
3	 4	 1	 left	 LineStimuli//allStim/stimNo94r14c9v3.3.jpg	 l	 1.787	 GoodTrial	 allStim	 ra
4	 4	 0	 x	 LineStimuli//allStim/stimNo128r0c0v3.3.jpg	 r	 2.410	 GoodTrial	 allStim	 ra
5	 4	 1	 right	 LineStimuli//allStim/stimNo110r15c19v2.3.jpg	 l	 1.953	 GoodTrial	 allStim	 ra
6	 4	 1	 right	 LineStimuli//allStim/stimNo111r4c21v1.8.jpg	 l	 2.193	 GoodTrial	 allStim	 ra
7	 4	 1	 left	 LineStimuli//allStim/stimNo119r3c2v2.3.jpg	 l	 1.596	 GoodTrial	 allStim	 ra
8	 4	 0	 x	 LineStimuli//allStim/stimNo135r0c0v2.3.jpg	 r	 2.781	 GoodTrial	 allStim	 ra
9	 4	 1	 right	 LineStimuli//allStim/stimNo84r6c16v3.3.jpg	 l	 1.547	 GoodTrial	 allStim	 ra
10	 4	 1	 right	 LineStimuli//allStim/stimNo112r6c15v1.8.jpg	 l	 2.704	 GoodTrial	 allStim	 ra
11	 4	 0	 x	 LineStimuli//allStim/stimNo144r0c0v2.3.jpg	 r	 2.633	 GoodTrial	 allStim	 ra
12	 4	 0	 x	 LineStimuli//allStim/stimNo154r0c0v3.3.jpg	 r	 2.983	 GoodTrial	 allStim	 ra
13	 4	 0	 x	 LineStimuli//allStim/stimNo152r0c0v3.8.jpg	 r	 2.168	 GoodTrial	 allStim	 ra
14	 4	 1	 left	 LineStimuli//allStim/stimNo119r9c8v3.8.jpg	 l	 1.878	 GoodTrial	 allStim	 ra
15	 4	 0	 x	 LineStimuli//allStim/stimNo148r0c0v4.3.jpg	 r	 2.242	 GoodTrial	 allStim	 ra
16	 4	 0	 x	 LineStimuli//allStim/stimNo136r0c0v4.3.jpg	 r	 2.253	 GoodTrial	 allStim	 ra
17	 4	 1	 right	 LineStimuli//allStim/stimNo117r10c21v4.3.jpg	 l	 1.844	 GoodTrial	 allStim	 ra
18	 4	 0	 x	 LineStimuli//allStim/stimNo123r0c0v3.3.jpg	 r	 2.016	 GoodTrial	 allStim	 ra
19	 4	 0	 x	 LineStimuli//allStim/stimNo142r0c0v3.8.jpg	 r	 2.003	 GoodTrial	 allStim	 ra
20	 4	 1	 right	 LineStimuli//allStim/stimNo112r12c16v3.8.jpg	 l	 1.886	 GoodTrial	 allStim	 ra
21	 4	 1	 right	 LineStimuli//allStim/stimNo120r8c14v3.3.jpg	 l	 1.722	 GoodTrial	 allStim	 ra
22	 4	 0	 x	 LineStimuli//allStim/stimNo123r0c0v1.5.jpg	 r	 1.864	 GoodTrial	 allStim	 ra
23	 4	 0	 x	 LineStimuli//allStim/stimNo149r0c0v3.3.jpg	 r	 2.111	 GoodTrial	 allStim	 ra
24	 4	 0	 x	 LineStimuli//allStim/stimNo143r0c0v3.8.jpg	 r	 3.160	 GoodTrial	 allStim	 ra
25	 4	 0	 x	 LineStimuli//allStim/stimNo133r0c0v4.3.jpg	 r	 1.737	 GoodTrial	 allStim	 ra
26	 4	 1	 left	 LineStimuli//allStim/stimNo113r9c5v2.8.jpg	 l	 1.781	 GoodTrial	 allStim	 ra
27	 4	 0	 x	 LineStimuli//allStim/stimNo156r0c0v1.5.jpg	 r	 2.546	 GoodTrial	 allStim	 ra
28	 4	 0	 x	 LineStimuli//allStim/stimNo147r0c0v2.3.jpg	 r	 4.116	 GoodTrial	 allStim	 ra
29	 4	 0	 x	 LineStimuli//allStim/stimNo143r0c0v1.8.jpg	 r	 3.631	 GoodTrial	 allStim	 ra
30	 4	 0	 x	 LineStimuli//allStim/stimNo152r0c0v1.8.jpg	 r	 4.634	 GoodTrial	 allStim	 ra
31	 4	 0	 x	 LineStimuli//allStim/stimNo139r0c0v3.3.jpg	 r	 2.270	 GoodTrial	 allStim	 ra
32	 4	 0	 x	 LineStimuli//allStim/stimNo135r0c0v1.5.jpg	 r	 5.630	 GoodTrial	 allStim	 ra
33	 4	 0	 x	 LineStimuli//allStim/stimNo153r0c0v3.8.jpg	 r	 3.297	 GoodTrial	 allStim	 ra
34	 4	 0	 x	 LineStimuli//allStim/stimNo153r0c0v1.8.jpg	 r	 4.550	 GoodTrial	 allStim	 ra
35	 4	 1	 right	 LineStimuli//allStim/stimNo95r9c18v2.8.jpg	 l	 1.927	 GoodTrial	 allStim	 ra
36	 4	 0	 x	 LineStimuli//allStim/stimNo151r0c0v1.5.jpg	 r	 4.397	 GoodTrial	 allStim	 ra
37	 4	 0	 x	 LineStimuli//allStim/stimNo124r0c0v2.3.jpg	 r	 3.956	 GoodTrial	 allStim	 ra
38	 4	 1	 left	 LineStimuli//allStim/stimNo103r15c10v1.8.jpg	 l	 2.852	 GoodTrial	 allStim	 ra
39	 4	 1	 left	 LineStimuli//allStim/stimNo96r13c2v1.8.jpg	 l	 2.049	 GoodTrial	 allStim	 ra
40	 4	 0	 x	 LineStimuli//allStim/stimNo147r0c0v2.8.jpg	 r	 3.285	 GoodTrial	 allStim	 ra
41	 4	 1	 right	 LineStimuli//allStim/stimNo98r8c21v1.5.jpg	 r	 5.457	 GoodTrial	 allStim	 ra
42	 4	 0	 x	 LineStimuli//allStim/stimNo133r0c0v2.8.jpg	 r	 3.032	 GoodTrial	 allStim	 ra
43	 4	 0	 x	 LineStimuli//allStim/stimNo155r0c0v3.3.jpg	 r	 2.104	 GoodTrial	 allStim	 ra
44	 4	 1	 left	 LineStimuli//allStim/stimNo104r12c8v3.8.jpg	 l	 1.885	 GoodTrial	 allStim	 ra
45	 4	 1	 left	 LineStimuli//allStim/stimNo97r15c6v1.5.jpg	 r	 9.576	 GoodTrial	 allStim	 ra
46	 4	 0	 x	 LineStimuli//allStim/stimNo130r0c0v2.8.jpg	 r	 3.132	 GoodTrial	 allStim	 ra
47	 4	 1	 left	 LineStimuli//allStim/stimNo117r2c5v3.3.jpg	 l	 1.992	 GoodTrial	 allStim	 ra
48	 4	 0	 x	 LineStimuli//allStim/stimNo150r0c0v1.8.jpg	 r	 5.375	 GoodTrial	 allStim	 ra
49	 4	 1	 right	 LineStimuli//allStim/stimNo91r10c16v3.8.jpg	 l	 1.744	 GoodTrial	 allStim	 ra
50	 4	 1	 left	 LineStimuli//allStim/stimNo117r11c8v2.3.jpg	 l	 1.664	 GoodTrial	 allStim	 ra
1	 5	 1	 right	 LineStimuli//allStim/stimNo90r15c13v1.8.jpg	 l	 2.034	 GoodTrial	 allStim	 ra
2	 5	 0	 x	 LineStimuli//allStim/stimNo127r0c0v3.8.jpg	 r	 2.252	 GoodTrial	 allStim	 ra
3	 5	 0	 x	 LineStimuli//allStim/stimNo122r0c0v2.3.jpg	 r	 4.122	 GoodTrial	 allStim	 ra
4	 5	 0	 x	 LineStimuli//allStim/stimNo149r0c0v3.3.jpg	 r	 1.952	 GoodTrial	 allStim	 ra
5	 5	 0	 x	 LineStimuli//allStim/stimNo128r0c0v2.8.jpg	 r	 1.941	 GoodTrial	 allStim	 ra
6	 5	 0	 x	 LineStimuli//allStim/stimNo139r0c0v1.5.jpg	 r	 4.492	 GoodTrial	 allStim	 ra
7	 5	 0	 x	 LineStimuli//allStim/stimNo147r0c0v1.8.jpg	 r	 5.980	 GoodTrial	 allStim	 ra
8	 5	 0	 x	 LineStimuli//allStim/stimNo151r0c0v2.8.jpg	 r	 4.945	 GoodTrial	 allStim	 ra
9	 5	 0	 x	 LineStimuli//allStim/stimNo142r0c0v3.3.jpg	 r	 2.256	 GoodTrial	 allStim	 ra
10	 5	 0	 x	 LineStimuli//allStim/stimNo143r0c0v3.3.jpg	 r	 1.863	 GoodTrial	 allStim	 ra
11	 5	 0	 x	 LineStimuli//allStim/stimNo152r0c0v2.3.jpg	 r	 3.563	 GoodTrial	 allStim	 ra
12	 5	 1	 left	 LineStimuli//allStim/stimNo117r2c5v3.3.jpg	 l	 2.216	 GoodTrial	 allStim	 ra
13	 5	 1	 left	 LineStimuli//allStim/stimNo86r8c9v2.3.jpg	 l	 2.481	 GoodTrial	 allStim	 ra
14	 5	 0	 x	 LineStimuli//allStim/stimNo136r0c0v4.3.jpg	 r	 1.782	 GoodTrial	 allStim	 ra
15	 5	 1	 left	 LineStimuli//allStim/stimNo113r6c7v1.8.jpg	 l	 1.982	 GoodTrial	 allStim	 ra
16	 5	 0	 x	 LineStimuli//allStim/stimNo146r0c0v2.8.jpg	 r	 3.385	 GoodTrial	 allStim	 ra
17	 5	 0	 x	 LineStimuli//allStim/stimNo146r0c0v4.3.jpg	 r	 1.919	 GoodTrial	 allStim	 ra
18	 5	 0	 x	 LineStimuli//allStim/stimNo121r0c0v1.5.jpg	 r	 5.974	 GoodTrial	 allStim	 ra
19	 5	 1	 left	 LineStimuli//allStim/stimNo88r10c3v4.3.jpg	 l	 1.736	 GoodTrial	 allStim	 ra
20	 5	 0	 x	 LineStimuli//allStim/stimNo153r0c0v2.3.jpg	 r	 7.827	 GoodTrial	 allStim	 ra
21	 5	 0	 x	 LineStimuli//allStim/stimNo131r0c0v3.8.jpg	 r	 2.479	 GoodTrial	 allStim	 ra
22	 5	 1	 left	 LineStimuli//allStim/stimNo105r14c6v4.3.jpg	 l	 1.806	 GoodTrial	 allStim	 ra
23	 5	 1	 right	 LineStimuli//allStim/stimNo85r4c15v2.3.jpg	 l	 1.690	 GoodTrial	 allStim	 ra
24	 5	 0	 x	 LineStimuli//allStim/stimNo127r0c0v1.5.jpg	 l	 2.103	 GoodTrial	 allStim	 ra
25	 5	 1	 left	 LineStimuli//allStim/stimNo93r9c9v4.3.jpg	 l	 1.850	 GoodTrial	 allStim	 ra
26	 5	 1	 right	 LineStimuli//allStim/stimNo81r6c17v1.5.jpg	 r	 3.744	 GoodTrial	 allStim	 ra
27	 5	 1	 right	 LineStimuli//allStim/stimNo116r5c13v4.3.jpg	 l	 1.776	 GoodTrial	 allStim	 ra
28	 5	 1	 left	 LineStimuli//allStim/stimNo109r8c6v1.5.jpg	 l	 2.317	 GoodTrial	 allStim	 ra
29	 5	 0	 x	 LineStimuli//allStim/stimNo144r0c0v3.8.jpg	 r	 2.121	 GoodTrial	 allStim	 ra
30	 5	 1	 right	 LineStimuli//allStim/stimNo114r8c19v2.8.jpg	 l	 1.918	 GoodTrial	 allStim	 ra
31	 5	 0	 x	 LineStimuli//allStim/stimNo132r0c0v4.3.jpg	 r	 1.900	 GoodTrial	 allStim	 ra
32	 5	 0	 x	 LineStimuli//allStim/stimNo127r0c0v2.8.jpg	 r	 2.281	 GoodTrial	 allStim	 ra
33	 5	 1	 right	 LineStimuli//allStim/stimNo116r10c14v3.3.jpg	 l	 2.631	 GoodTrial	 allStim	 ra
34	 5	 1	 right	 LineStimuli//allStim/stimNo115r9c14v2.8.jpg	 l	 1.873	 GoodTrial	 allStim	 ra
35	 5	 1	 left	 LineStimuli//allStim/stimNo94r13c8v1.8.jpg	 r	 3.487	 GoodTrial	 allStim	 ra
36	 5	 1	 right	 LineStimuli//allStim/stimNo92r10c18v1.8.jpg	 l	 2.703	 GoodTrial	 allStim	 ra
37	 5	 0	 x	 LineStimuli//allStim/stimNo140r0c0v2.3.jpg	 r	 3.620	 GoodTrial	 allStim	 ra
38	 5	 0	 x	 LineStimuli//allStim/stimNo159r0c0v1.5.jpg	 r	 4.347	 GoodTrial	 allStim	 ra
39	 5	 0	 x	 LineStimuli//allStim/stimNo139r0c0v4.3.jpg	 r	 2.065	 GoodTrial	 allStim	 ra
40	 5	 1	 left	 LineStimuli//allStim/stimNo114r7c8v2.3.jpg	 l	 1.910	 GoodTrial	 allStim	 ra
41	 5	 0	 x	 LineStimuli//allStim/stimNo121r0c0v3.3.jpg	 r	 1.945	 GoodTrial	 allStim	 ra
42	 5	 1	 right	 LineStimuli//allStim/stimNo117r10c21v4.3.jpg	 l	 1.873	 GoodTrial	 allStim	 ra
43	 5	 1	 right	 LineStimuli//allStim/stimNo111r4c21v1.8.jpg	 l	 2.190	 GoodTrial	 allStim	 ra
44	 5	 1	 right	 LineStimuli//allStim/stimNo92r10c17v2.3.jpg	 l	 1.701	 GoodTrial	 allStim	 ra
45	 5	 1	 left	 LineStimuli//allStim/stimNo83r14c4v2.3.jpg	 l	 2.067	 GoodTrial	 allStim	 ra
46	 5	 0	 x	 LineStimuli//allStim/stimNo126r0c0v3.3.jpg	 r	 2.231	 GoodTrial	 allStim	 ra
47	 5	 0	 x	 LineStimuli//allStim/stimNo128r0c0v1.8.jpg	 r	 4.144	 GoodTrial	 allStim	 ra
48	 5	 1	 left	 LineStimuli//allStim/stimNo110r7c3v1.5.jpg	 r	 5.812	 GoodTrial	 allStim	 ra
49	 5	 1	 right	 LineStimuli//allStim/stimNo93r4c16v2.3.jpg	 l	 2.877	 GoodTrial	 allStim	 ra
50	 5	 0	 x	 LineStimuli//allStim/stimNo149r0c0v3.8.jpg	 r	 1.935	 GoodTrial	 allStim	 ra
1	 6	 1	 left	 LineStimuli//allStim/stimNo107r5c6v2.8.jpg	 x	 0.664	 EARLY_RESPONSE	 allStim	 ra
2	 6	 1	 left	 LineStimuli//allStim/stimNo103r15c10v1.8.jpg	 l	 3.352	 GoodTrial	 allStim	 ra
3	 6	 1	 left	 LineStimuli//allStim/stimNo95r15c8v3.3.jpg	 l	 1.681	 GoodTrial	 allStim	 ra
4	 6	 0	 x	 LineStimuli//allStim/stimNo152r0c0v3.8.jpg	 r	 2.719	 GoodTrial	 allStim	 ra
5	 6	 0	 x	 LineStimuli//allStim/stimNo138r0c0v3.8.jpg	 r	 1.713	 GoodTrial	 allStim	 ra
6	 6	 0	 x	 LineStimuli//allStim/stimNo142r0c0v4.3.jpg	 r	 1.895	 GoodTrial	 allStim	 ra
7	 6	 0	 x	 LineStimuli//allStim/stimNo141r0c0v2.3.jpg	 r	 1.743	 GoodTrial	 allStim	 ra
8	 6	 0	 x	 LineStimuli//allStim/stimNo134r0c0v2.8.jpg	 r	 2.734	 GoodTrial	 allStim	 ra
9	 6	 1	 right	 LineStimuli//allStim/stimNo91r11c20v2.3.jpg	 l	 2.007	 GoodTrial	 allStim	 ra
10	 6	 1	 left	 LineStimuli//allStim/stimNo102r3c2v2.8.jpg	 l	 3.104	 GoodTrial	 allStim	 ra
11	 6	 1	 right	 LineStimuli//allStim/stimNo107r2c19v1.5.jpg	 l	 2.454	 GoodTrial	 allStim	 ra
12	 6	 1	 right	 LineStimuli//allStim/stimNo84r15c20v4.3.jpg	 l	 2.016	 GoodTrial	 allStim	 ra
13	 6	 0	 x	 LineStimuli//allStim/stimNo126r0c0v3.8.jpg	 r	 2.272	 GoodTrial	 allStim	 ra
14	 6	 0	 x	 LineStimuli//allStim/stimNo125r0c0v1.5.jpg	 r	 3.660	 GoodTrial	 allStim	 ra
15	 6	 1	 left	 LineStimuli//allStim/stimNo113r3c8v2.3.jpg	 l	 2.191	 GoodTrial	 allStim	 ra
16	 6	 0	 x	 LineStimuli//allStim/stimNo135r0c0v2.3.jpg	 r	 2.486	 GoodTrial	 allStim	 ra
17	 6	 0	 x	 LineStimuli//allStim/stimNo157r0c0v3.8.jpg	 r	 2.401	 GoodTrial	 allStim	 ra
18	 6	 0	 x	 LineStimuli//allStim/stimNo160r0c0v2.3.jpg	 r	 2.931	 GoodTrial	 allStim	 ra
19	 6	 1	 right	 LineStimuli//allStim/stimNo101r12c17v3.8.jpg	 l	 1.731	 GoodTrial	 allStim	 ra
20	 6	 1	 left	 LineStimuli//allStim/stimNo86r14c4v1.8.jpg	 l	 2.969	 GoodTrial	 allStim	 ra
21	 6	 0	 x	 LineStimuli//allStim/stimNo154r0c0v2.3.jpg	 r	 3.588	 GoodTrial	 allStim	 ra
22	 6	 1	 left	 LineStimuli//allStim/stimNo95r4c9v1.8.jpg	 l	 1.849	 GoodTrial	 allStim	 ra
23	 6	 1	 left	 LineStimuli//allStim/stimNo100r8c6v2.3.jpg	 l	 2.249	 GoodTrial	 allStim	 ra
24	 6	 1	 right	 LineStimuli//allStim/stimNo114r11c21v3.3.jpg	 l	 1.697	 GoodTrial	 allStim	 ra
25	 6	 1	 left	 LineStimuli//allStim/stimNo111r15c7v3.3.jpg	 l	 1.772	 GoodTrial	 allStim	 ra
26	 6	 0	 x	 LineStimuli//allStim/stimNo149r0c0v1.5.jpg	 r	 6.110	 GoodTrial	 allStim	 ra
27	 6	 1	 left	 LineStimuli//allStim/stimNo113r9c5v2.8.jpg	 l	 1.698	 GoodTrial	 allStim	 ra
28	 6	 0	 x	 LineStimuli//allStim/stimNo145r0c0v1.8.jpg	 r	 3.175	 GoodTrial	 allStim	 ra
29	 6	 0	 x	 LineStimuli//allStim/stimNo156r0c0v4.3.jpg	 r	 1.707	 GoodTrial	 allStim	 ra
30	 6	 0	 x	 LineStimuli//allStim/stimNo146r0c0v3.8.jpg	 r	 1.611	 GoodTrial	 allStim	 ra
31	 6	 1	 left	 LineStimuli//allStim/stimNo86r7c7v3.8.jpg	 l	 1.909	 GoodTrial	 allStim	 ra
32	 6	 1	 right	 LineStimuli//allStim/stimNo100r6c20v1.5.jpg	 l	 2.217	 GoodTrial	 allStim	 ra
33	 6	 0	 x	 LineStimuli//allStim/stimNo126r0c0v3.3.jpg	 r	 1.760	 GoodTrial	 allStim	 ra
34	 6	 0	 x	 LineStimuli//allStim/stimNo148r0c0v3.3.jpg	 r	 2.024	 GoodTrial	 allStim	 ra
35	 6	 1	 right	 LineStimuli//allStim/stimNo104r3c21v1.8.jpg	 l	 2.303	 GoodTrial	 allStim	 ra
36	 6	 1	 left	 LineStimuli//allStim/stimNo86r7c3v4.3.jpg	 l	 1.794	 GoodTrial	 allStim	 ra
37	 6	 0	 x	 LineStimuli//allStim/stimNo151r0c0v3.3.jpg	 r	 2.367	 GoodTrial	 allStim	 ra
38	 6	 1	 right	 LineStimuli//allStim/stimNo115r10c18v4.3.jpg	 l	 1.746	 GoodTrial	 allStim	 ra
39	 6	 0	 x	 LineStimuli//allStim/stimNo130r0c0v3.8.jpg	 r	 2.103	 GoodTrial	 allStim	 ra
40	 6	 1	 right	 LineStimuli//allStim/stimNo89r5c21v3.3.jpg	 l	 2.065	 GoodTrial	 allStim	 ra
41	 6	 1	 left	 LineStimuli//allStim/stimNo107r5c4v1.8.jpg	 l	 2.260	 GoodTrial	 allStim	 ra
42	 6	 1	 left	 LineStimuli//allStim/stimNo104r12c8v3.8.jpg	 l	 1.753	 GoodTrial	 allStim	 ra
43	 6	 1	 left	 LineStimuli//allStim/stimNo83r9c9v3.8.jpg	 l	 1.546	 GoodTrial	 allStim	 ra
44	 6	 1	 right	 LineStimuli//allStim/stimNo101r5c20v1.5.jpg	 l	 2.060	 GoodTrial	 allStim	 ra
45	 6	 1	 right	 LineStimuli//allStim/stimNo96r8c18v3.3.jpg	 l	 1.615	 GoodTrial	 allStim	 ra
46	 6	 0	 x	 LineStimuli//allStim/stimNo139r0c0v1.5.jpg	 r	 3.344	 GoodTrial	 allStim	 ra
47	 6	 0	 x	 LineStimuli//allStim/stimNo130r0c0v3.3.jpg	 r	 2.025	 GoodTrial	 allStim	 ra
48	 6	 1	 right	 LineStimuli//allStim/stimNo112r13c17v2.8.jpg	 l	 1.834	 GoodTrial	 allStim	 ra
49	 6	 0	 x	 LineStimuli//allStim/stimNo138r0c0v3.3.jpg	 r	 1.992	 GoodTrial	 allStim	 ra
50	 6	 0	 x	 LineStimuli//allStim/stimNo135r0c0v3.3.jpg	 r	 1.697	 GoodTrial	 allStim	 ra
1	 7	 0	 x	 LineStimuli//allStim/stimNo149r0c0v1.8.jpg	 r	 3.815	 GoodTrial	 allStim	 ra
2	 7	 1	 left	 LineStimuli//allStim/stimNo115r14c10v3.8.jpg	 l	 2.327	 GoodTrial	 allStim	 ra
3	 7	 1	 right	 LineStimuli//allStim/stimNo118r5c16v2.8.jpg	 l	 1.790	 GoodTrial	 allStim	 ra
4	 7	 0	 x	 LineStimuli//allStim/stimNo131r0c0v3.8.jpg	 r	 3.232	 GoodTrial	 allStim	 ra
5	 7	 1	 right	 LineStimuli//allStim/stimNo107r2c17v3.3.jpg	 l	 1.899	 GoodTrial	 allStim	 ra
6	 7	 0	 x	 LineStimuli//allStim/stimNo133r0c0v1.8.jpg	 r	 2.934	 GoodTrial	 allStim	 ra
7	 7	 1	 left	 LineStimuli//allStim/stimNo101r5c5v4.3.jpg	 l	 1.726	 GoodTrial	 allStim	 ra
8	 7	 1	 left	 LineStimuli//allStim/stimNo107r5c4v1.8.jpg	 l	 1.839	 GoodTrial	 allStim	 ra
9	 7	 0	 x	 LineStimuli//allStim/stimNo150r0c0v3.8.jpg	 r	 2.146	 GoodTrial	 allStim	 ra
10	 7	 1	 left	 LineStimuli//allStim/stimNo96r3c3v2.3.jpg	 l	 1.696	 GoodTrial	 allStim	 ra
11	 7	 1	 left	 LineStimuli//allStim/stimNo103r15c10v1.8.jpg	 l	 3.895	 GoodTrial	 allStim	 ra
12	 7	 0	 x	 LineStimuli//allStim/stimNo150r0c0v1.8.jpg	 r	 3.388	 GoodTrial	 allStim	 ra
13	 7	 0	 x	 LineStimuli//allStim/stimNo138r0c0v4.3.jpg	 r	 1.878	 GoodTrial	 allStim	 ra
14	 7	 1	 left	 LineStimuli//allStim/stimNo88r15c3v2.8.jpg	 l	 1.992	 GoodTrial	 allStim	 ra
15	 7	 1	 right	 LineStimuli//allStim/stimNo82r11c20v3.3.jpg	 l	 1.775	 GoodTrial	 allStim	 ra
16	 7	 0	 x	 LineStimuli//allStim/stimNo127r0c0v2.3.jpg	 r	 2.319	 GoodTrial	 allStim	 ra
17	 7	 1	 right	 LineStimuli//allStim/stimNo101r5c20v1.5.jpg	 r	 2.595	 GoodTrial	 allStim	 ra
18	 7	 1	 right	 LineStimuli//allStim/stimNo86r6c16v1.5.jpg	 l	 2.334	 GoodTrial	 allStim	 ra
19	 7	 0	 x	 LineStimuli//allStim/stimNo151r0c0v3.3.jpg	 r	 1.870	 GoodTrial	 allStim	 ra
20	 7	 0	 x	 LineStimuli//allStim/stimNo122r0c0v1.8.jpg	 r	 4.831	 GoodTrial	 allStim	 ra
21	 7	 1	 right	 LineStimuli//allStim/stimNo101r12c16v2.8.jpg	 l	 1.703	 GoodTrial	 allStim	 ra
22	 7	 0	 x	 LineStimuli//allStim/stimNo135r0c0v4.3.jpg	 r	 1.880	 GoodTrial	 allStim	 ra
23	 7	 1	 right	 LineStimuli//allStim/stimNo85r4c15v2.3.jpg	 l	 1.688	 GoodTrial	 allStim	 ra
24	 7	 0	 x	 LineStimuli//allStim/stimNo125r0c0v2.8.jpg	 r	 3.578	 GoodTrial	 allStim	 ra
25	 7	 0	 x	 LineStimuli//allStim/stimNo139r0c0v1.5.jpg	 r	 4.985	 GoodTrial	 allStim	 ra
26	 7	 0	 x	 LineStimuli//allStim/stimNo153r0c0v3.8.jpg	 r	 1.842	 GoodTrial	 allStim	 ra
27	 7	 1	 right	 LineStimuli//allStim/stimNo95r9c18v2.8.jpg	 l	 1.877	 GoodTrial	 allStim	 ra
28	 7	 0	 x	 LineStimuli//allStim/stimNo157r0c0v2.8.jpg	 r	 3.183	 GoodTrial	 allStim	 ra
29	 7	 0	 x	 LineStimuli//allStim/stimNo152r0c0v1.8.jpg	 r	 5.190	 GoodTrial	 allStim	 ra
30	 7	 0	 x	 LineStimuli//allStim/stimNo148r0c0v1.8.jpg	 r	 4.935	 GoodTrial	 allStim	 ra
31	 7	 0	 x	 LineStimuli//allStim/stimNo133r0c0v2.8.jpg	 r	 2.124	 GoodTrial	 allStim	 ra
32	 7	 1	 left	 LineStimuli//allStim/stimNo84r3c9v2.8.jpg	 l	 1.713	 GoodTrial	 allStim	 ra
33	 7	 1	 left	 LineStimuli//allStim/stimNo108r13c6v2.8.jpg	 l	 1.775	 GoodTrial	 allStim	 ra
34	 7	 1	 left	 LineStimuli//allStim/stimNo88r6c7v1.5.jpg	 r	 4.648	 GoodTrial	 allStim	 ra
35	 7	 0	 x	 LineStimuli//allStim/stimNo123r0c0v1.5.jpg	 r	 7.573	 GoodTrial	 allStim	 ra
36	 7	 1	 right	 LineStimuli//allStim/stimNo95r5c21v3.8.jpg	 l	 2.087	 GoodTrial	 allStim	 ra
37	 7	 1	 right	 LineStimuli//allStim/stimNo120r8c20v2.8.jpg	 l	 2.027	 GoodTrial	 allStim	 ra
38	 7	 0	 x	 LineStimuli//allStim/stimNo122r0c0v3.3.jpg	 r	 2.218	 GoodTrial	 allStim	 ra
39	 7	 0	 x	 LineStimuli//allStim/stimNo158r0c0v4.3.jpg	 r	 1.983	 GoodTrial	 allStim	 ra
40	 7	 0	 x	 LineStimuli//allStim/stimNo157r0c0v3.8.jpg	 r	 1.812	 GoodTrial	 allStim	 ra
41	 7	 1	 left	 LineStimuli//allStim/stimNo83r4c2v4.3.jpg	 l	 1.980	 GoodTrial	 allStim	 ra
42	 7	 0	 x	 LineStimuli//allStim/stimNo155r0c0v1.5.jpg	 r	 5.165	 GoodTrial	 allStim	 ra
43	 7	 0	 x	 LineStimuli//allStim/stimNo130r0c0v3.3.jpg	 r	 1.828	 GoodTrial	 allStim	 ra
44	 7	 1	 left	 LineStimuli//allStim/stimNo86r8c9v2.3.jpg	 l	 2.059	 GoodTrial	 allStim	 ra
45	 7	 0	 x	 LineStimuli//allStim/stimNo133r0c0v3.8.jpg	 r	 2.622	 GoodTrial	 allStim	 ra
46	 7	 0	 x	 LineStimuli//allStim/stimNo145r0c0v3.8.jpg	 r	 2.016	 GoodTrial	 allStim	 ra
47	 7	 1	 left	 LineStimuli//allStim/stimNo94r10c6v1.5.jpg	 r	 6.993	 GoodTrial	 allStim	 ra
48	 7	 1	 right	 LineStimuli//allStim/stimNo88r9c14v3.3.jpg	 l	 1.768	 GoodTrial	 allStim	 ra
49	 7	 1	 left	 LineStimuli//allStim/stimNo115r3c4v3.3.jpg	 l	 1.864	 GoodTrial	 allStim	 ra
50	 7	 0	 x	 LineStimuli//allStim/stimNo151r0c0v1.5.jpg	 r	 9.489	 GoodTrial	 allStim	 ra
