Trial	Block	Target_pr	Target_side	Name	Key	RT	Message	Block_Type	Condition
1	 1	 1	 left	 LineStimuli//allStim/stimNo85r13c2v1.8.jpg	 l	 3.539	 GoodTrial	 allStim	 ra
2	 1	 0	 x	 LineStimuli//allStim/stimNo144r0c0v1.5.jpg	 r	 3.595	 GoodTrial	 allStim	 ra
3	 1	 0	 x	 LineStimuli//allStim/stimNo131r0c0v3.8.jpg	 r	 2.235	 GoodTrial	 allStim	 ra
4	 1	 1	 left	 LineStimuli//allStim/stimNo104r12c8v3.8.jpg	 l	 1.723	 GoodTrial	 allStim	 ra
5	 1	 1	 left	 LineStimuli//allStim/stimNo101r5c5v4.3.jpg	 l	 1.546	 GoodTrial	 allStim	 ra
6	 1	 1	 left	 LineStimuli//allStim/stimNo107r5c6v2.8.jpg	 l	 1.547	 GoodTrial	 allStim	 ra
7	 1	 0	 x	 LineStimuli//allStim/stimNo151r0c0v1.5.jpg	 r	 1.648	 GoodTrial	 allStim	 ra
8	 1	 1	 right	 LineStimuli//allStim/stimNo82r11c15v1.5.jpg	 r	 1.896	 GoodTrial	 allStim	 ra
9	 1	 1	 left	 LineStimuli//allStim/stimNo107r2c8v4.3.jpg	 l	 1.657	 GoodTrial	 allStim	 ra
10	 1	 0	 x	 LineStimuli//allStim/stimNo134r0c0v1.8.jpg	 r	 3.792	 GoodTrial	 allStim	 ra
11	 1	 1	 right	 LineStimuli//allStim/stimNo118r9c20v1.5.jpg	 r	 4.351	 GoodTrial	 allStim	 ra
12	 1	 1	 right	 LineStimuli//allStim/stimNo99r2c13v3.8.jpg	 l	 1.852	 GoodTrial	 allStim	 ra
13	 1	 1	 left	 LineStimuli//allStim/stimNo110r7c3v1.5.jpg	 r	 7.422	 GoodTrial	 allStim	 ra
14	 1	 0	 x	 LineStimuli//allStim/stimNo129r0c0v2.8.jpg	 r	 3.504	 GoodTrial	 allStim	 ra
15	 1	 1	 left	 LineStimuli//allStim/stimNo120r5c3v3.8.jpg	 l	 1.624	 GoodTrial	 allStim	 ra
16	 1	 0	 x	 LineStimuli//allStim/stimNo158r0c0v1.5.jpg	 r	 5.543	 GoodTrial	 allStim	 ra
17	 1	 1	 right	 LineStimuli//allStim/stimNo81r10c14v4.3.jpg	 l	 1.927	 GoodTrial	 allStim	 ra
18	 1	 1	 right	 LineStimuli//allStim/stimNo114r8c19v2.8.jpg	 l	 1.536	 GoodTrial	 allStim	 ra
19	 1	 1	 right	 LineStimuli//allStim/stimNo112r5c15v3.3.jpg	 l	 1.508	 GoodTrial	 allStim	 ra
20	 1	 1	 left	 LineStimuli//allStim/stimNo106r9c9v3.8.jpg	 l	 1.769	 GoodTrial	 allStim	 ra
21	 1	 0	 x	 LineStimuli//allStim/stimNo155r0c0v1.8.jpg	 r	 3.587	 GoodTrial	 allStim	 ra
22	 1	 0	 x	 LineStimuli//allStim/stimNo155r0c0v3.3.jpg	 r	 1.912	 GoodTrial	 allStim	 ra
23	 1	 0	 x	 LineStimuli//allStim/stimNo149r0c0v1.5.jpg	 l	 3.394	 GoodTrial	 allStim	 ra
24	 1	 0	 x	 LineStimuli//allStim/stimNo154r0c0v3.8.jpg	 r	 1.808	 GoodTrial	 allStim	 ra
25	 1	 0	 x	 LineStimuli//allStim/stimNo132r0c0v1.5.jpg	 r	 4.607	 GoodTrial	 allStim	 ra
26	 1	 0	 x	 LineStimuli//allStim/stimNo149r0c0v3.8.jpg	 r	 1.963	 GoodTrial	 allStim	 ra
27	 1	 0	 x	 LineStimuli//allStim/stimNo122r0c0v1.5.jpg	 r	 3.731	 GoodTrial	 allStim	 ra
28	 1	 0	 x	 LineStimuli//allStim/stimNo147r0c0v2.8.jpg	 r	 1.823	 GoodTrial	 allStim	 ra
29	 1	 0	 x	 LineStimuli//allStim/stimNo133r0c0v3.3.jpg	 r	 2.105	 GoodTrial	 allStim	 ra
30	 1	 0	 x	 LineStimuli//allStim/stimNo154r0c0v2.8.jpg	 r	 2.722	 GoodTrial	 allStim	 ra
31	 1	 0	 x	 LineStimuli//allStim/stimNo124r0c0v3.3.jpg	 r	 1.811	 GoodTrial	 allStim	 ra
32	 1	 1	 left	 LineStimuli//allStim/stimNo109r11c8v3.8.jpg	 l	 1.555	 GoodTrial	 allStim	 ra
33	 1	 0	 x	 LineStimuli//allStim/stimNo121r0c0v2.8.jpg	 r	 1.675	 GoodTrial	 allStim	 ra
34	 1	 0	 x	 LineStimuli//allStim/stimNo154r0c0v4.3.jpg	 r	 1.991	 GoodTrial	 allStim	 ra
35	 1	 0	 x	 LineStimuli//allStim/stimNo157r0c0v1.5.jpg	 r	 3.248	 GoodTrial	 allStim	 ra
36	 1	 0	 x	 LineStimuli//allStim/stimNo158r0c0v2.3.jpg	 r	 1.696	 GoodTrial	 allStim	 ra
37	 1	 0	 x	 LineStimuli//allStim/stimNo146r0c0v1.5.jpg	 r	 2.429	 GoodTrial	 allStim	 ra
38	 1	 0	 x	 LineStimuli//allStim/stimNo134r0c0v4.3.jpg	 r	 1.697	 GoodTrial	 allStim	 ra
39	 1	 1	 right	 LineStimuli//allStim/stimNo93r9c20v2.8.jpg	 l	 1.617	 GoodTrial	 allStim	 ra
40	 1	 1	 left	 LineStimuli//allStim/stimNo113r14c9v3.8.jpg	 l	 1.702	 GoodTrial	 allStim	 ra
41	 1	 0	 x	 LineStimuli//allStim/stimNo131r0c0v4.3.jpg	 r	 1.662	 GoodTrial	 allStim	 ra
42	 1	 0	 x	 LineStimuli//allStim/stimNo155r0c0v3.8.jpg	 r	 1.721	 GoodTrial	 allStim	 ra
43	 1	 1	 left	 LineStimuli//allStim/stimNo98r15c5v1.8.jpg	 l	 2.241	 GoodTrial	 allStim	 ra
44	 1	 0	 x	 LineStimuli//allStim/stimNo121r0c0v2.3.jpg	 r	 1.628	 GoodTrial	 allStim	 ra
45	 1	 1	 left	 LineStimuli//allStim/stimNo94r8c9v2.3.jpg	 r	 1.678	 GoodTrial	 allStim	 ra
46	 1	 0	 x	 LineStimuli//allStim/stimNo136r0c0v3.8.jpg	 r	 1.734	 GoodTrial	 allStim	 ra
47	 1	 1	 right	 LineStimuli//allStim/stimNo101r8c14v2.3.jpg	 r	 1.822	 GoodTrial	 allStim	 ra
48	 1	 1	 left	 LineStimuli//allStim/stimNo113r4c4v1.5.jpg	 r	 3.780	 GoodTrial	 allStim	 ra
49	 1	 1	 left	 LineStimuli//allStim/stimNo86r15c6v2.8.jpg	 l	 1.929	 GoodTrial	 allStim	 ra
50	 1	 0	 x	 LineStimuli//allStim/stimNo148r0c0v4.3.jpg	 r	 1.823	 GoodTrial	 allStim	 ra
1	 2	 0	 x	 LineStimuli//allStim/stimNo121r0c0v2.8.jpg	 r	 1.825	 GoodTrial	 allStim	 ra
2	 2	 1	 left	 LineStimuli//allStim/stimNo113r9c5v2.8.jpg	 l	 1.817	 GoodTrial	 allStim	 ra
3	 2	 1	 left	 LineStimuli//allStim/stimNo105r6c5v1.8.jpg	 l	 2.177	 GoodTrial	 allStim	 ra
4	 2	 0	 x	 LineStimuli//allStim/stimNo150r0c0v1.5.jpg	 r	 1.847	 GoodTrial	 allStim	 ra
5	 2	 1	 left	 LineStimuli//allStim/stimNo95r13c9v2.3.jpg	 l	 1.648	 GoodTrial	 allStim	 ra
6	 2	 1	 left	 LineStimuli//allStim/stimNo88r6c7v1.5.jpg	 r	 2.192	 GoodTrial	 allStim	 ra
7	 2	 0	 x	 LineStimuli//allStim/stimNo124r0c0v3.8.jpg	 r	 1.758	 GoodTrial	 allStim	 ra
8	 2	 0	 x	 LineStimuli//allStim/stimNo121r0c0v4.3.jpg	 r	 1.798	 GoodTrial	 allStim	 ra
9	 2	 0	 x	 LineStimuli//allStim/stimNo129r0c0v3.8.jpg	 r	 1.647	 GoodTrial	 allStim	 ra
10	 2	 1	 right	 LineStimuli//allStim/stimNo87r6c13v3.8.jpg	 l	 1.614	 GoodTrial	 allStim	 ra
11	 2	 1	 left	 LineStimuli//allStim/stimNo110r4c3v3.3.jpg	 l	 1.841	 GoodTrial	 allStim	 ra
12	 2	 0	 x	 LineStimuli//allStim/stimNo159r0c0v2.8.jpg	 r	 1.643	 GoodTrial	 allStim	 ra
13	 2	 1	 right	 LineStimuli//allStim/stimNo114r10c15v4.3.jpg	 l	 1.535	 GoodTrial	 allStim	 ra
14	 2	 0	 x	 LineStimuli//allStim/stimNo127r0c0v3.8.jpg	 r	 1.638	 GoodTrial	 allStim	 ra
15	 2	 0	 x	 LineStimuli//allStim/stimNo138r0c0v2.8.jpg	 r	 1.725	 GoodTrial	 allStim	 ra
16	 2	 1	 left	 LineStimuli//allStim/stimNo111r15c7v3.3.jpg	 l	 1.635	 GoodTrial	 allStim	 ra
17	 2	 1	 right	 LineStimuli//allStim/stimNo116r5c13v4.3.jpg	 l	 1.699	 GoodTrial	 allStim	 ra
18	 2	 1	 right	 LineStimuli//allStim/stimNo93r3c17v1.8.jpg	 l	 1.816	 GoodTrial	 allStim	 ra
19	 2	 0	 x	 LineStimuli//allStim/stimNo140r0c0v1.5.jpg	 r	 3.277	 GoodTrial	 allStim	 ra
20	 2	 0	 x	 LineStimuli//allStim/stimNo156r0c0v3.3.jpg	 r	 2.251	 GoodTrial	 allStim	 ra
21	 2	 0	 x	 LineStimuli//allStim/stimNo146r0c0v1.8.jpg	 r	 2.018	 GoodTrial	 allStim	 ra
22	 2	 0	 x	 LineStimuli//allStim/stimNo153r0c0v1.5.jpg	 l	 1.673	 GoodTrial	 allStim	 ra
23	 2	 1	 right	 LineStimuli//allStim/stimNo111r11c21v2.3.jpg	 l	 1.663	 GoodTrial	 allStim	 ra
24	 2	 0	 x	 LineStimuli//allStim/stimNo141r0c0v4.3.jpg	 r	 1.704	 GoodTrial	 allStim	 ra
25	 2	 0	 x	 LineStimuli//allStim/stimNo122r0c0v3.3.jpg	 r	 1.879	 GoodTrial	 allStim	 ra
26	 2	 0	 x	 LineStimuli//allStim/stimNo144r0c0v3.3.jpg	 r	 1.775	 GoodTrial	 allStim	 ra
27	 2	 0	 x	 LineStimuli//allStim/stimNo134r0c0v1.8.jpg	 r	 2.736	 GoodTrial	 allStim	 ra
28	 2	 1	 right	 LineStimuli//allStim/stimNo86r6c16v1.5.jpg	 r	 2.092	 GoodTrial	 allStim	 ra
29	 2	 0	 x	 LineStimuli//allStim/stimNo130r0c0v3.8.jpg	 r	 1.687	 GoodTrial	 allStim	 ra
30	 2	 0	 x	 LineStimuli//allStim/stimNo131r0c0v2.3.jpg	 r	 1.761	 GoodTrial	 allStim	 ra
31	 2	 1	 right	 LineStimuli//allStim/stimNo82r7c18v4.3.jpg	 l	 1.689	 GoodTrial	 allStim	 ra
32	 2	 0	 x	 LineStimuli//allStim/stimNo138r0c0v2.3.jpg	 r	 1.711	 GoodTrial	 allStim	 ra
33	 2	 1	 right	 LineStimuli//allStim/stimNo92r6c21v3.8.jpg	 l	 1.673	 GoodTrial	 allStim	 ra
34	 2	 0	 x	 LineStimuli//allStim/stimNo135r0c0v1.8.jpg	 r	 1.528	 GoodTrial	 allStim	 ra
35	 2	 0	 x	 LineStimuli//allStim/stimNo153r0c0v2.3.jpg	 r	 1.693	 GoodTrial	 allStim	 ra
36	 2	 0	 x	 LineStimuli//allStim/stimNo148r0c0v2.3.jpg	 r	 1.592	 GoodTrial	 allStim	 ra
37	 2	 1	 right	 LineStimuli//allStim/stimNo118r11c13v4.3.jpg	 l	 1.639	 GoodTrial	 allStim	 ra
38	 2	 0	 x	 LineStimuli//allStim/stimNo145r0c0v2.8.jpg	 r	 1.545	 GoodTrial	 allStim	 ra
39	 2	 0	 x	 LineStimuli//allStim/stimNo130r0c0v2.8.jpg	 r	 1.601	 GoodTrial	 allStim	 ra
40	 2	 0	 x	 LineStimuli//allStim/stimNo126r0c0v1.8.jpg	 l	 2.010	 GoodTrial	 allStim	 ra
41	 2	 0	 x	 LineStimuli//allStim/stimNo132r0c0v3.8.jpg	 r	 2.051	 GoodTrial	 allStim	 ra
42	 2	 1	 left	 LineStimuli//allStim/stimNo86r5c7v3.3.jpg	 l	 1.707	 GoodTrial	 allStim	 ra
43	 2	 1	 right	 LineStimuli//allStim/stimNo84r15c14v2.3.jpg	 r	 1.679	 GoodTrial	 allStim	 ra
44	 2	 1	 left	 LineStimuli//allStim/stimNo113r4c4v1.5.jpg	 r	 1.617	 GoodTrial	 allStim	 ra
45	 2	 0	 x	 LineStimuli//allStim/stimNo123r0c0v1.8.jpg	 r	 1.910	 GoodTrial	 allStim	 ra
46	 2	 1	 right	 LineStimuli//allStim/stimNo115r14c18v1.5.jpg	 r	 2.203	 GoodTrial	 allStim	 ra
47	 2	 0	 x	 LineStimuli//allStim/stimNo136r0c0v3.8.jpg	 r	 1.721	 GoodTrial	 allStim	 ra
48	 2	 1	 right	 LineStimuli//allStim/stimNo100r9c13v1.8.jpg	 l	 2.498	 GoodTrial	 allStim	 ra
49	 2	 1	 right	 LineStimuli//allStim/stimNo96r8c18v3.3.jpg	 l	 1.606	 GoodTrial	 allStim	 ra
50	 2	 0	 x	 LineStimuli//allStim/stimNo134r0c0v3.3.jpg	 r	 1.744	 GoodTrial	 allStim	 ra
1	 3	 1	 left	 LineStimuli//allStim/stimNo106r9c9v2.3.jpg	 l	 1.823	 GoodTrial	 allStim	 ra
2	 3	 0	 x	 LineStimuli//allStim/stimNo149r0c0v3.3.jpg	 r	 1.639	 GoodTrial	 allStim	 ra
3	 3	 1	 right	 LineStimuli//allStim/stimNo91r10c16v3.8.jpg	 l	 1.760	 GoodTrial	 allStim	 ra
4	 3	 1	 right	 LineStimuli//allStim/stimNo91r12c16v3.3.jpg	 l	 1.530	 GoodTrial	 allStim	 ra
5	 3	 0	 x	 LineStimuli//allStim/stimNo157r0c0v1.5.jpg	 r	 2.529	 GoodTrial	 allStim	 ra
6	 3	 1	 left	 LineStimuli//allStim/stimNo81r15c8v3.3.jpg	 l	 1.621	 GoodTrial	 allStim	 ra
7	 3	 0	 x	 LineStimuli//allStim/stimNo133r0c0v2.3.jpg	 r	 1.965	 GoodTrial	 allStim	 ra
8	 3	 0	 x	 LineStimuli//allStim/stimNo127r0c0v3.3.jpg	 x	 0.055	 EARLY_RESPONSE	 allStim	 ra
9	 3	 1	 right	 LineStimuli//allStim/stimNo115r10c18v4.3.jpg	 l	 1.728	 GoodTrial	 allStim	 ra
10	 3	 1	 right	 LineStimuli//allStim/stimNo95r5c21v3.8.jpg	 l	 1.594	 GoodTrial	 allStim	 ra
11	 3	 0	 x	 LineStimuli//allStim/stimNo121r0c0v2.3.jpg	 r	 1.752	 GoodTrial	 allStim	 ra
12	 3	 0	 x	 LineStimuli//allStim/stimNo151r0c0v2.3.jpg	 r	 1.736	 GoodTrial	 allStim	 ra
13	 3	 1	 left	 LineStimuli//allStim/stimNo104r2c4v2.3.jpg	 l	 2.033	 GoodTrial	 allStim	 ra
14	 3	 0	 x	 LineStimuli//allStim/stimNo135r0c0v1.8.jpg	 r	 1.685	 GoodTrial	 allStim	 ra
15	 3	 0	 x	 LineStimuli//allStim/stimNo149r0c0v3.8.jpg	 r	 2.200	 GoodTrial	 allStim	 ra
16	 3	 1	 right	 LineStimuli//allStim/stimNo81r8c14v2.8.jpg	 l	 1.714	 GoodTrial	 allStim	 ra
17	 3	 0	 x	 LineStimuli//allStim/stimNo133r0c0v1.5.jpg	 r	 1.852	 GoodTrial	 allStim	 ra
18	 3	 1	 right	 LineStimuli//allStim/stimNo89r5c21v3.3.jpg	 l	 1.600	 GoodTrial	 allStim	 ra
19	 3	 1	 left	 LineStimuli//allStim/stimNo87r14c2v1.8.jpg	 l	 1.967	 GoodTrial	 allStim	 ra
20	 3	 0	 x	 LineStimuli//allStim/stimNo149r0c0v1.8.jpg	 r	 3.418	 GoodTrial	 allStim	 ra
21	 3	 1	 right	 LineStimuli//allStim/stimNo95r6c14v1.5.jpg	 l	 2.596	 GoodTrial	 allStim	 ra
22	 3	 0	 x	 LineStimuli//allStim/stimNo131r0c0v4.3.jpg	 r	 1.698	 GoodTrial	 allStim	 ra
23	 3	 1	 right	 LineStimuli//allStim/stimNo96r4c19v4.3.jpg	 l	 1.587	 GoodTrial	 allStim	 ra
24	 3	 1	 right	 LineStimuli//allStim/stimNo107r2c19v1.5.jpg	 r	 2.232	 GoodTrial	 allStim	 ra
25	 3	 0	 x	 LineStimuli//allStim/stimNo147r0c0v3.3.jpg	 r	 1.692	 GoodTrial	 allStim	 ra
26	 3	 1	 left	 LineStimuli//allStim/stimNo120r14c9v1.8.jpg	 r	 1.793	 GoodTrial	 allStim	 ra
27	 3	 0	 x	 LineStimuli//allStim/stimNo150r0c0v4.3.jpg	 r	 1.814	 GoodTrial	 allStim	 ra
28	 3	 1	 right	 LineStimuli//allStim/stimNo82r11c20v3.3.jpg	 l	 2.977	 GoodTrial	 allStim	 ra
29	 3	 0	 x	 LineStimuli//allStim/stimNo144r0c0v2.3.jpg	 r	 2.173	 GoodTrial	 allStim	 ra
30	 3	 0	 x	 LineStimuli//allStim/stimNo156r0c0v3.8.jpg	 r	 1.712	 GoodTrial	 allStim	 ra
31	 3	 1	 right	 LineStimuli//allStim/stimNo106r13c20v2.8.jpg	 l	 2.100	 GoodTrial	 allStim	 ra
32	 3	 1	 left	 LineStimuli//allStim/stimNo104r15c2v4.3.jpg	 l	 1.875	 GoodTrial	 allStim	 ra
33	 3	 1	 left	 LineStimuli//allStim/stimNo96r6c9v2.8.jpg	 l	 1.743	 GoodTrial	 allStim	 ra
34	 3	 0	 x	 LineStimuli//allStim/stimNo147r0c0v3.8.jpg	 r	 2.269	 GoodTrial	 allStim	 ra
35	 3	 1	 right	 LineStimuli//allStim/stimNo99r9c18v2.8.jpg	 l	 2.181	 GoodTrial	 allStim	 ra
36	 3	 0	 x	 LineStimuli//allStim/stimNo152r0c0v4.3.jpg	 r	 1.792	 GoodTrial	 allStim	 ra
37	 3	 1	 right	 LineStimuli//allStim/stimNo110r7c14v2.8.jpg	 l	 2.057	 GoodTrial	 allStim	 ra
38	 3	 0	 x	 LineStimuli//allStim/stimNo156r0c0v2.3.jpg	 r	 1.631	 GoodTrial	 allStim	 ra
39	 3	 1	 left	 LineStimuli//allStim/stimNo117r2c5v3.3.jpg	 l	 1.970	 GoodTrial	 allStim	 ra
40	 3	 0	 x	 LineStimuli//allStim/stimNo127r0c0v1.5.jpg	 r	 1.813	 GoodTrial	 allStim	 ra
41	 3	 1	 left	 LineStimuli//allStim/stimNo119r8c5v2.8.jpg	 l	 1.584	 GoodTrial	 allStim	 ra
42	 3	 1	 left	 LineStimuli//allStim/stimNo103r6c6v3.3.jpg	 l	 1.521	 GoodTrial	 allStim	 ra
43	 3	 1	 left	 LineStimuli//allStim/stimNo112r9c5v1.5.jpg	 r	 1.622	 GoodTrial	 allStim	 ra
44	 3	 0	 x	 LineStimuli//allStim/stimNo142r0c0v4.3.jpg	 r	 1.872	 GoodTrial	 allStim	 ra
45	 3	 1	 right	 LineStimuli//allStim/stimNo109r7c17v1.8.jpg	 l	 2.793	 GoodTrial	 allStim	 ra
46	 3	 1	 right	 LineStimuli//allStim/stimNo92r6c21v3.8.jpg	 l	 1.257	 GoodTrial	 allStim	 ra
47	 3	 1	 left	 LineStimuli//allStim/stimNo87r3c5v4.3.jpg	 l	 1.619	 GoodTrial	 allStim	 ra
48	 3	 1	 right	 LineStimuli//allStim/stimNo92r14c21v2.8.jpg	 l	 2.927	 GoodTrial	 allStim	 ra
49	 3	 0	 x	 LineStimuli//allStim/stimNo137r0c0v2.8.jpg	 r	 1.724	 GoodTrial	 allStim	 ra
50	 3	 1	 left	 LineStimuli//allStim/stimNo97r15c6v1.5.jpg	 l	 2.065	 GoodTrial	 allStim	 ra
1	 4	 1	 right	 LineStimuli//allStim/stimNo102r10c19v4.3.jpg	 l	 1.555	 GoodTrial	 allStim	 ra
2	 4	 1	 right	 LineStimuli//allStim/stimNo107r11c15v2.3.jpg	 l	 1.732	 GoodTrial	 allStim	 ra
3	 4	 0	 x	 LineStimuli//allStim/stimNo145r0c0v3.8.jpg	 r	 2.131	 GoodTrial	 allStim	 ra
4	 4	 1	 right	 LineStimuli//allStim/stimNo90r15c13v1.8.jpg	 l	 2.101	 GoodTrial	 allStim	 ra
5	 4	 1	 right	 LineStimuli//allStim/stimNo91r11c20v2.3.jpg	 l	 1.495	 GoodTrial	 allStim	 ra
6	 4	 0	 x	 LineStimuli//allStim/stimNo150r0c0v1.8.jpg	 r	 2.221	 GoodTrial	 allStim	 ra
7	 4	 0	 x	 LineStimuli//allStim/stimNo123r0c0v4.3.jpg	 r	 1.613	 GoodTrial	 allStim	 ra
8	 4	 1	 left	 LineStimuli//allStim/stimNo118r4c8v3.8.jpg	 l	 1.540	 GoodTrial	 allStim	 ra
9	 4	 0	 x	 LineStimuli//allStim/stimNo156r0c0v2.3.jpg	 r	 1.961	 GoodTrial	 allStim	 ra
10	 4	 0	 x	 LineStimuli//allStim/stimNo136r0c0v2.8.jpg	 r	 2.812	 GoodTrial	 allStim	 ra
11	 4	 0	 x	 LineStimuli//allStim/stimNo154r0c0v3.8.jpg	 r	 2.279	 GoodTrial	 allStim	 ra
12	 4	 1	 right	 LineStimuli//allStim/stimNo91r10c16v3.8.jpg	 l	 1.590	 GoodTrial	 allStim	 ra
13	 4	 0	 x	 LineStimuli//allStim/stimNo142r0c0v2.8.jpg	 r	 3.444	 GoodTrial	 allStim	 ra
14	 4	 1	 left	 LineStimuli//allStim/stimNo82r12c4v2.3.jpg	 l	 1.932	 GoodTrial	 allStim	 ra
15	 4	 1	 right	 LineStimuli//allStim/stimNo99r9c18v2.8.jpg	 l	 1.584	 GoodTrial	 allStim	 ra
16	 4	 1	 right	 LineStimuli//allStim/stimNo98r8c21v1.5.jpg	 l	 1.895	 GoodTrial	 allStim	 ra
17	 4	 1	 right	 LineStimuli//allStim/stimNo82r11c20v3.3.jpg	 l	 1.602	 GoodTrial	 allStim	 ra
18	 4	 0	 x	 LineStimuli//allStim/stimNo128r0c0v2.3.jpg	 r	 3.518	 GoodTrial	 allStim	 ra
19	 4	 0	 x	 LineStimuli//allStim/stimNo126r0c0v1.8.jpg	 r	 4.574	 GoodTrial	 allStim	 ra
20	 4	 1	 left	 LineStimuli//allStim/stimNo104r12c8v3.8.jpg	 l	 1.518	 GoodTrial	 allStim	 ra
21	 4	 0	 x	 LineStimuli//allStim/stimNo127r0c0v4.3.jpg	 r	 1.940	 GoodTrial	 allStim	 ra
22	 4	 0	 x	 LineStimuli//allStim/stimNo158r0c0v2.8.jpg	 r	 3.584	 GoodTrial	 allStim	 ra
23	 4	 1	 left	 LineStimuli//allStim/stimNo95r11c9v4.3.jpg	 l	 1.511	 GoodTrial	 allStim	 ra
24	 4	 1	 right	 LineStimuli//allStim/stimNo108r9c21v1.8.jpg	 l	 1.868	 GoodTrial	 allStim	 ra
25	 4	 0	 x	 LineStimuli//allStim/stimNo152r0c0v2.3.jpg	 r	 1.663	 GoodTrial	 allStim	 ra
26	 4	 0	 x	 LineStimuli//allStim/stimNo160r0c0v3.3.jpg	 r	 1.717	 GoodTrial	 allStim	 ra
27	 4	 0	 x	 LineStimuli//allStim/stimNo130r0c0v3.3.jpg	 r	 1.701	 GoodTrial	 allStim	 ra
28	 4	 1	 left	 LineStimuli//allStim/stimNo85r2c5v1.5.jpg	 l	 2.665	 GoodTrial	 allStim	 ra
29	 4	 1	 right	 LineStimuli//allStim/stimNo93r4c16v2.3.jpg	 l	 1.629	 GoodTrial	 allStim	 ra
30	 4	 1	 right	 LineStimuli//allStim/stimNo117r10c16v1.8.jpg	 l	 2.182	 GoodTrial	 allStim	 ra
31	 4	 0	 x	 LineStimuli//allStim/stimNo160r0c0v1.8.jpg	 r	 1.976	 GoodTrial	 allStim	 ra
32	 4	 0	 x	 LineStimuli//allStim/stimNo154r0c0v1.5.jpg	 r	 3.433	 GoodTrial	 allStim	 ra
33	 4	 1	 right	 LineStimuli//allStim/stimNo92r10c18v1.8.jpg	 l	 1.513	 GoodTrial	 allStim	 ra
34	 4	 0	 x	 LineStimuli//allStim/stimNo147r0c0v4.3.jpg	 r	 1.747	 GoodTrial	 allStim	 ra
35	 4	 1	 left	 LineStimuli//allStim/stimNo106r8c2v4.3.jpg	 l	 1.578	 GoodTrial	 allStim	 ra
36	 4	 0	 x	 LineStimuli//allStim/stimNo134r0c0v1.5.jpg	 r	 2.307	 GoodTrial	 allStim	 ra
37	 4	 1	 left	 LineStimuli//allStim/stimNo93r3c5v3.3.jpg	 l	 1.529	 GoodTrial	 allStim	 ra
38	 4	 1	 right	 LineStimuli//allStim/stimNo112r5c15v3.3.jpg	 l	 1.489	 GoodTrial	 allStim	 ra
39	 4	 0	 x	 LineStimuli//allStim/stimNo128r0c0v1.8.jpg	 r	 2.072	 GoodTrial	 allStim	 ra
40	 4	 0	 x	 LineStimuli//allStim/stimNo154r0c0v4.3.jpg	 r	 1.873	 GoodTrial	 allStim	 ra
41	 4	 0	 x	 LineStimuli//allStim/stimNo152r0c0v3.8.jpg	 r	 1.952	 GoodTrial	 allStim	 ra
42	 4	 0	 x	 LineStimuli//allStim/stimNo149r0c0v2.8.jpg	 r	 1.731	 GoodTrial	 allStim	 ra
43	 4	 0	 x	 LineStimuli//allStim/stimNo134r0c0v3.8.jpg	 r	 1.558	 GoodTrial	 allStim	 ra
44	 4	 0	 x	 LineStimuli//allStim/stimNo136r0c0v3.8.jpg	 r	 1.463	 GoodTrial	 allStim	 ra
45	 4	 0	 x	 LineStimuli//allStim/stimNo146r0c0v2.3.jpg	 r	 1.596	 GoodTrial	 allStim	 ra
46	 4	 0	 x	 LineStimuli//allStim/stimNo135r0c0v3.8.jpg	 r	 1.525	 GoodTrial	 allStim	 ra
47	 4	 1	 right	 LineStimuli//allStim/stimNo101r8c14v2.3.jpg	 l	 1.706	 GoodTrial	 allStim	 ra
48	 4	 1	 left	 LineStimuli//allStim/stimNo97r3c3v2.3.jpg	 l	 1.899	 GoodTrial	 allStim	 ra
49	 4	 1	 right	 LineStimuli//allStim/stimNo101r12c17v3.8.jpg	 l	 1.508	 GoodTrial	 allStim	 ra
50	 4	 0	 x	 LineStimuli//allStim/stimNo123r0c0v1.5.jpg	 r	 2.594	 GoodTrial	 allStim	 ra
1	 5	 1	 left	 LineStimuli//allStim/stimNo93r3c5v3.3.jpg	 l	 1.634	 GoodTrial	 allStim	 ra
2	 5	 0	 x	 LineStimuli//allStim/stimNo135r0c0v4.3.jpg	 r	 1.559	 GoodTrial	 allStim	 ra
3	 5	 0	 x	 LineStimuli//allStim/stimNo136r0c0v2.3.jpg	 r	 2.799	 GoodTrial	 allStim	 ra
4	 5	 1	 left	 LineStimuli//allStim/stimNo94r10c6v1.5.jpg	 r	 6.187	 GoodTrial	 allStim	 ra
5	 5	 1	 right	 LineStimuli//allStim/stimNo117r11c17v2.8.jpg	 x	 0.952	 EARLY_RESPONSE	 allStim	 ra
6	 5	 0	 x	 LineStimuli//allStim/stimNo143r0c0v2.3.jpg	 r	 2.836	 GoodTrial	 allStim	 ra
7	 5	 0	 x	 LineStimuli//allStim/stimNo155r0c0v1.8.jpg	 r	 3.582	 GoodTrial	 allStim	 ra
8	 5	 1	 right	 LineStimuli//allStim/stimNo89r3c17v4.3.jpg	 l	 1.478	 GoodTrial	 allStim	 ra
9	 5	 0	 x	 LineStimuli//allStim/stimNo149r0c0v2.3.jpg	 r	 1.768	 GoodTrial	 allStim	 ra
10	 5	 1	 right	 LineStimuli//allStim/stimNo81r10c14v4.3.jpg	 l	 1.457	 GoodTrial	 allStim	 ra
11	 5	 1	 left	 LineStimuli//allStim/stimNo98r2c9v3.8.jpg	 l	 1.465	 GoodTrial	 allStim	 ra
12	 5	 0	 x	 LineStimuli//allStim/stimNo138r0c0v4.3.jpg	 r	 1.713	 GoodTrial	 allStim	 ra
13	 5	 0	 x	 LineStimuli//allStim/stimNo158r0c0v3.8.jpg	 r	 1.665	 GoodTrial	 allStim	 ra
14	 5	 0	 x	 LineStimuli//allStim/stimNo124r0c0v2.8.jpg	 r	 1.790	 GoodTrial	 allStim	 ra
15	 5	 1	 right	 LineStimuli//allStim/stimNo87r15c13v3.3.jpg	 l	 1.616	 GoodTrial	 allStim	 ra
16	 5	 0	 x	 LineStimuli//allStim/stimNo122r0c0v1.8.jpg	 r	 2.011	 GoodTrial	 allStim	 ra
17	 5	 1	 left	 LineStimuli//allStim/stimNo91r2c3v2.8.jpg	 l	 1.525	 GoodTrial	 allStim	 ra
18	 5	 1	 right	 LineStimuli//allStim/stimNo101r8c14v2.3.jpg	 l	 1.867	 GoodTrial	 allStim	 ra
19	 5	 1	 left	 LineStimuli//allStim/stimNo113r6c7v1.8.jpg	 l	 2.436	 GoodTrial	 allStim	 ra
20	 5	 0	 x	 LineStimuli//allStim/stimNo152r0c0v1.5.jpg	 r	 3.761	 GoodTrial	 allStim	 ra
21	 5	 1	 right	 LineStimuli//allStim/stimNo118r3c16v3.3.jpg	 l	 1.522	 GoodTrial	 allStim	 ra
22	 5	 0	 x	 LineStimuli//allStim/stimNo130r0c0v3.8.jpg	 r	 1.803	 GoodTrial	 allStim	 ra
23	 5	 1	 right	 LineStimuli//allStim/stimNo95r6c14v1.5.jpg	 r	 2.899	 GoodTrial	 allStim	 ra
24	 5	 1	 left	 LineStimuli//allStim/stimNo117r11c8v2.3.jpg	 l	 1.783	 GoodTrial	 allStim	 ra
25	 5	 0	 x	 LineStimuli//allStim/stimNo127r0c0v1.8.jpg	 r	 3.380	 GoodTrial	 allStim	 ra
26	 5	 1	 left	 LineStimuli//allStim/stimNo82r12c4v2.3.jpg	 x	 0.104	 EARLY_RESPONSE	 allStim	 ra
27	 5	 1	 right	 LineStimuli//allStim/stimNo109r2c17v2.3.jpg	 l	 2.721	 GoodTrial	 allStim	 ra
28	 5	 1	 left	 LineStimuli//allStim/stimNo105r14c6v4.3.jpg	 l	 1.474	 GoodTrial	 allStim	 ra
29	 5	 0	 x	 LineStimuli//allStim/stimNo142r0c0v2.3.jpg	 r	 1.919	 GoodTrial	 allStim	 ra
30	 5	 0	 x	 LineStimuli//allStim/stimNo145r0c0v1.8.jpg	 r	 2.011	 GoodTrial	 allStim	 ra
31	 5	 1	 left	 LineStimuli//allStim/stimNo88r15c9v1.8.jpg	 l	 1.619	 GoodTrial	 allStim	 ra
32	 5	 1	 left	 LineStimuli//allStim/stimNo115r7c3v2.3.jpg	 x	 1.441	 GoodTrial	 allStim	 ra
33	 5	 0	 x	 LineStimuli//allStim/stimNo122r0c0v2.8.jpg	 r	 1.715	 GoodTrial	 allStim	 ra
34	 5	 0	 x	 LineStimuli//allStim/stimNo121r0c0v2.8.jpg	 r	 1.976	 GoodTrial	 allStim	 ra
35	 5	 1	 left	 LineStimuli//allStim/stimNo94r13c7v2.8.jpg	 l	 1.608	 GoodTrial	 allStim	 ra
36	 5	 0	 x	 LineStimuli//allStim/stimNo140r0c0v1.5.jpg	 r	 6.459	 GoodTrial	 allStim	 ra
37	 5	 1	 left	 LineStimuli//allStim/stimNo102r7c6v1.5.jpg	 r	 2.716	 GoodTrial	 allStim	 ra
38	 5	 1	 left	 LineStimuli//allStim/stimNo106r3c7v1.5.jpg	 r	 3.344	 GoodTrial	 allStim	 ra
39	 5	 1	 left	 LineStimuli//allStim/stimNo106r13c9v1.8.jpg	 r	 2.823	 GoodTrial	 allStim	 ra
40	 5	 1	 left	 LineStimuli//allStim/stimNo89r10c7v3.8.jpg	 l	 1.553	 GoodTrial	 allStim	 ra
41	 5	 0	 x	 LineStimuli//allStim/stimNo136r0c0v3.8.jpg	 r	 1.704	 GoodTrial	 allStim	 ra
42	 5	 0	 x	 LineStimuli//allStim/stimNo147r0c0v3.8.jpg	 r	 1.769	 GoodTrial	 allStim	 ra
43	 5	 1	 left	 LineStimuli//allStim/stimNo109r8c6v1.5.jpg	 l	 1.922	 GoodTrial	 allStim	 ra
44	 5	 0	 x	 LineStimuli//allStim/stimNo153r0c0v2.3.jpg	 r	 1.634	 GoodTrial	 allStim	 ra
45	 5	 0	 x	 LineStimuli//allStim/stimNo124r0c0v1.8.jpg	 r	 2.138	 GoodTrial	 allStim	 ra
46	 5	 1	 right	 LineStimuli//allStim/stimNo109r7c17v1.8.jpg	 l	 1.702	 GoodTrial	 allStim	 ra
47	 5	 0	 x	 LineStimuli//allStim/stimNo138r0c0v3.3.jpg	 r	 1.802	 GoodTrial	 allStim	 ra
48	 5	 0	 x	 LineStimuli//allStim/stimNo132r0c0v3.3.jpg	 r	 1.841	 GoodTrial	 allStim	 ra
49	 5	 0	 x	 LineStimuli//allStim/stimNo130r0c0v2.8.jpg	 r	 1.597	 GoodTrial	 allStim	 ra
50	 5	 1	 left	 LineStimuli//allStim/stimNo99r10c3v1.5.jpg	 r	 1.891	 GoodTrial	 allStim	 ra
1	 6	 0	 x	 LineStimuli//allStim/stimNo156r0c0v3.3.jpg	 r	 1.640	 GoodTrial	 allStim	 ra
2	 6	 0	 x	 LineStimuli//allStim/stimNo146r0c0v1.5.jpg	 l	 1.901	 GoodTrial	 allStim	 ra
3	 6	 1	 right	 LineStimuli//allStim/stimNo81r8c14v2.8.jpg	 l	 1.729	 GoodTrial	 allStim	 ra
4	 6	 1	 right	 LineStimuli//allStim/stimNo90r3c15v1.5.jpg	 r	 2.222	 GoodTrial	 allStim	 ra
5	 6	 1	 left	 LineStimuli//allStim/stimNo90r10c4v4.3.jpg	 l	 1.466	 GoodTrial	 allStim	 ra
6	 6	 0	 x	 LineStimuli//allStim/stimNo131r0c0v3.8.jpg	 r	 1.835	 GoodTrial	 allStim	 ra
7	 6	 0	 x	 LineStimuli//allStim/stimNo134r0c0v2.8.jpg	 l	 1.603	 GoodTrial	 allStim	 ra
8	 6	 1	 left	 LineStimuli//allStim/stimNo109r8c6v1.5.jpg	 l	 3.409	 GoodTrial	 allStim	 ra
9	 6	 1	 left	 LineStimuli//allStim/stimNo106r9c9v2.3.jpg	 l	 1.535	 GoodTrial	 allStim	 ra
10	 6	 1	 right	 LineStimuli//allStim/stimNo98r8c21v1.5.jpg	 l	 2.390	 GoodTrial	 allStim	 ra
11	 6	 1	 left	 LineStimuli//allStim/stimNo98r2c9v3.8.jpg	 r	 1.821	 GoodTrial	 allStim	 ra
12	 6	 0	 x	 LineStimuli//allStim/stimNo145r0c0v3.3.jpg	 l	 2.008	 GoodTrial	 allStim	 ra
13	 6	 0	 x	 LineStimuli//allStim/stimNo134r0c0v3.8.jpg	 r	 1.782	 GoodTrial	 allStim	 ra
14	 6	 1	 left	 LineStimuli//allStim/stimNo95r11c9v4.3.jpg	 l	 1.533	 GoodTrial	 allStim	 ra
15	 6	 1	 right	 LineStimuli//allStim/stimNo91r11c20v2.3.jpg	 l	 1.637	 GoodTrial	 allStim	 ra
16	 6	 1	 right	 LineStimuli//allStim/stimNo94r6c17v3.8.jpg	 l	 1.535	 GoodTrial	 allStim	 ra
17	 6	 0	 x	 LineStimuli//allStim/stimNo137r0c0v2.3.jpg	 r	 2.143	 GoodTrial	 allStim	 ra
18	 6	 1	 left	 LineStimuli//allStim/stimNo111r10c9v4.3.jpg	 l	 1.461	 GoodTrial	 allStim	 ra
19	 6	 1	 right	 LineStimuli//allStim/stimNo107r2c19v1.5.jpg	 r	 2.680	 GoodTrial	 allStim	 ra
20	 6	 1	 right	 LineStimuli//allStim/stimNo91r9c13v4.3.jpg	 l	 1.672	 GoodTrial	 allStim	 ra
21	 6	 1	 left	 LineStimuli//allStim/stimNo94r13c7v2.8.jpg	 l	 1.538	 GoodTrial	 allStim	 ra
22	 6	 0	 x	 LineStimuli//allStim/stimNo127r0c0v1.5.jpg	 r	 2.719	 GoodTrial	 allStim	 ra
23	 6	 1	 right	 LineStimuli//allStim/stimNo82r9c21v3.8.jpg	 l	 1.487	 GoodTrial	 allStim	 ra
24	 6	 0	 x	 LineStimuli//allStim/stimNo122r0c0v2.3.jpg	 r	 2.568	 GoodTrial	 allStim	 ra
25	 6	 0	 x	 LineStimuli//allStim/stimNo141r0c0v4.3.jpg	 r	 1.791	 GoodTrial	 allStim	 ra
26	 6	 1	 right	 LineStimuli//allStim/stimNo113r13c15v3.3.jpg	 l	 1.549	 GoodTrial	 allStim	 ra
27	 6	 0	 x	 LineStimuli//allStim/stimNo156r0c0v3.8.jpg	 r	 1.889	 GoodTrial	 allStim	 ra
28	 6	 1	 right	 LineStimuli//allStim/stimNo83r6c13v1.8.jpg	 r	 1.969	 GoodTrial	 allStim	 ra
29	 6	 1	 left	 LineStimuli//allStim/stimNo105r2c6v3.8.jpg	 l	 1.536	 GoodTrial	 allStim	 ra
30	 6	 1	 right	 LineStimuli//allStim/stimNo81r3c21v3.8.jpg	 l	 1.702	 GoodTrial	 allStim	 ra
31	 6	 1	 left	 LineStimuli//allStim/stimNo110r6c7v4.3.jpg	 l	 1.473	 GoodTrial	 allStim	 ra
32	 6	 1	 right	 LineStimuli//allStim/stimNo97r15c18v1.8.jpg	 r	 2.008	 GoodTrial	 allStim	 ra
33	 6	 1	 right	 LineStimuli//allStim/stimNo119r6c19v1.5.jpg	 l	 1.664	 GoodTrial	 allStim	 ra
34	 6	 0	 x	 LineStimuli//allStim/stimNo126r0c0v3.8.jpg	 r	 1.791	 GoodTrial	 allStim	 ra
35	 6	 0	 x	 LineStimuli//allStim/stimNo144r0c0v2.3.jpg	 l	 1.737	 GoodTrial	 allStim	 ra
36	 6	 1	 right	 LineStimuli//allStim/stimNo104r5c18v1.5.jpg	 l	 1.920	 GoodTrial	 allStim	 ra
37	 6	 1	 right	 LineStimuli//allStim/stimNo107r2c17v3.3.jpg	 l	 1.652	 GoodTrial	 allStim	 ra
38	 6	 1	 left	 LineStimuli//allStim/stimNo108r5c8v4.3.jpg	 l	 1.492	 GoodTrial	 allStim	 ra
39	 6	 0	 x	 LineStimuli//allStim/stimNo145r0c0v2.8.jpg	 x	 1.246	 GoodTrial	 allStim	 ra
40	 6	 0	 x	 LineStimuli//allStim/stimNo130r0c0v1.5.jpg	 r	 2.585	 GoodTrial	 allStim	 ra
41	 6	 1	 left	 LineStimuli//allStim/stimNo116r4c7v1.8.jpg	 l	 1.695	 GoodTrial	 allStim	 ra
42	 6	 1	 left	 LineStimuli//allStim/stimNo98r3c8v4.3.jpg	 l	 1.461	 GoodTrial	 allStim	 ra
43	 6	 1	 right	 LineStimuli//allStim/stimNo91r12c16v3.3.jpg	 l	 1.754	 GoodTrial	 allStim	 ra
44	 6	 0	 x	 LineStimuli//allStim/stimNo142r0c0v3.8.jpg	 r	 1.881	 GoodTrial	 allStim	 ra
45	 6	 0	 x	 LineStimuli//allStim/stimNo158r0c0v1.5.jpg	 r	 2.705	 GoodTrial	 allStim	 ra
46	 6	 1	 right	 LineStimuli//allStim/stimNo116r5c13v4.3.jpg	 l	 1.552	 GoodTrial	 allStim	 ra
47	 6	 1	 left	 LineStimuli//allStim/stimNo117r2c5v3.3.jpg	 l	 1.584	 GoodTrial	 allStim	 ra
48	 6	 0	 x	 LineStimuli//allStim/stimNo127r0c0v4.3.jpg	 r	 1.562	 GoodTrial	 allStim	 ra
49	 6	 1	 left	 LineStimuli//allStim/stimNo93r3c5v3.3.jpg	 l	 1.508	 GoodTrial	 allStim	 ra
50	 6	 0	 x	 LineStimuli//allStim/stimNo132r0c0v2.3.jpg	 r	 1.870	 GoodTrial	 allStim	 ra
1	 7	 1	 right	 LineStimuli//allStim/stimNo103r13c17v1.5.jpg	 r	 4.446	 GoodTrial	 allStim	 ra
2	 7	 0	 x	 LineStimuli//allStim/stimNo143r0c0v2.8.jpg	 x	 0.439	 EARLY_RESPONSE	 allStim	 ra
3	 7	 1	 right	 LineStimuli//allStim/stimNo108r13c15v1.5.jpg	 r	 2.691	 GoodTrial	 allStim	 ra
4	 7	 1	 left	 LineStimuli//allStim/stimNo89r10c7v3.8.jpg	 l	 1.623	 GoodTrial	 allStim	 ra
5	 7	 1	 left	 LineStimuli//allStim/stimNo115r14c10v3.8.jpg	 l	 1.541	 GoodTrial	 allStim	 ra
6	 7	 1	 right	 LineStimuli//allStim/stimNo94r12c13v4.3.jpg	 l	 1.462	 GoodTrial	 allStim	 ra
7	 7	 1	 left	 LineStimuli//allStim/stimNo104r15c2v4.3.jpg	 l	 1.436	 GoodTrial	 allStim	 ra
8	 7	 1	 left	 LineStimuli//allStim/stimNo98r15c2v2.8.jpg	 l	 1.501	 GoodTrial	 allStim	 ra
9	 7	 1	 left	 LineStimuli//allStim/stimNo83r12c4v2.8.jpg	 l	 1.419	 GoodTrial	 allStim	 ra
10	 7	 0	 x	 LineStimuli//allStim/stimNo135r0c0v2.8.jpg	 r	 1.817	 GoodTrial	 allStim	 ra
11	 7	 1	 left	 LineStimuli//allStim/stimNo120r14c2v1.5.jpg	 r	 6.139	 GoodTrial	 allStim	 ra
12	 7	 0	 x	 LineStimuli//allStim/stimNo137r0c0v3.3.jpg	 x	 0.616	 EARLY_RESPONSE	 allStim	 ra
13	 7	 0	 x	 LineStimuli//allStim/stimNo157r0c0v3.3.jpg	 r	 1.813	 GoodTrial	 allStim	 ra
14	 7	 0	 x	 LineStimuli//allStim/stimNo151r0c0v1.8.jpg	 r	 3.589	 GoodTrial	 allStim	 ra
15	 7	 1	 left	 LineStimuli//allStim/stimNo88r15c3v2.8.jpg	 l	 1.665	 GoodTrial	 allStim	 ra
16	 7	 0	 x	 LineStimuli//allStim/stimNo123r0c0v2.3.jpg	 r	 1.916	 GoodTrial	 allStim	 ra
17	 7	 1	 left	 LineStimuli//allStim/stimNo106r3c7v1.5.jpg	 l	 3.345	 GoodTrial	 allStim	 ra
18	 7	 1	 right	 LineStimuli//allStim/stimNo90r13c21v2.8.jpg	 l	 1.823	 GoodTrial	 allStim	 ra
19	 7	 1	 left	 LineStimuli//allStim/stimNo115r7c3v2.3.jpg	 l	 1.537	 GoodTrial	 allStim	 ra
20	 7	 1	 left	 LineStimuli//allStim/stimNo120r14c9v1.8.jpg	 l	 2.348	 GoodTrial	 allStim	 ra
21	 7	 1	 left	 LineStimuli//allStim/stimNo108r13c2v3.3.jpg	 l	 1.481	 GoodTrial	 allStim	 ra
22	 7	 1	 right	 LineStimuli//allStim/stimNo84r11c21v1.8.jpg	 l	 1.591	 GoodTrial	 allStim	 ra
23	 7	 0	 x	 LineStimuli//allStim/stimNo133r0c0v3.3.jpg	 r	 2.526	 GoodTrial	 allStim	 ra
24	 7	 0	 x	 LineStimuli//allStim/stimNo134r0c0v3.8.jpg	 r	 1.995	 GoodTrial	 allStim	 ra
25	 7	 1	 left	 LineStimuli//allStim/stimNo117r7c8v1.5.jpg	 l	 2.862	 GoodTrial	 allStim	 ra
26	 7	 1	 right	 LineStimuli//allStim/stimNo116r5c13v4.3.jpg	 l	 1.518	 GoodTrial	 allStim	 ra
27	 7	 1	 right	 LineStimuli//allStim/stimNo82r11c15v1.5.jpg	 l	 3.007	 GoodTrial	 allStim	 ra
28	 7	 0	 x	 LineStimuli//allStim/stimNo134r0c0v1.8.jpg	 r	 2.225	 GoodTrial	 allStim	 ra
29	 7	 1	 right	 LineStimuli//allStim/stimNo102r10c19v4.3.jpg	 l	 1.469	 GoodTrial	 allStim	 ra
30	 7	 1	 right	 LineStimuli//allStim/stimNo105r7c20v3.3.jpg	 l	 1.583	 GoodTrial	 allStim	 ra
31	 7	 0	 x	 LineStimuli//allStim/stimNo138r0c0v4.3.jpg	 r	 1.865	 GoodTrial	 allStim	 ra
32	 7	 1	 left	 LineStimuli//allStim/stimNo97r15c9v3.8.jpg	 l	 1.579	 GoodTrial	 allStim	 ra
33	 7	 0	 x	 LineStimuli//allStim/stimNo158r0c0v4.3.jpg	 r	 1.840	 GoodTrial	 allStim	 ra
34	 7	 1	 left	 LineStimuli//allStim/stimNo83r4c2v4.3.jpg	 x	 1.126	 GoodTrial	 allStim	 ra
35	 7	 0	 x	 LineStimuli//allStim/stimNo144r0c0v1.8.jpg	 r	 3.670	 GoodTrial	 allStim	 ra
36	 7	 0	 x	 LineStimuli//allStim/stimNo139r0c0v2.8.jpg	 r	 2.360	 GoodTrial	 allStim	 ra
37	 7	 1	 right	 LineStimuli//allStim/stimNo100r9c13v1.8.jpg	 r	 2.193	 GoodTrial	 allStim	 ra
38	 7	 0	 x	 LineStimuli//allStim/stimNo127r0c0v1.5.jpg	 r	 3.579	 GoodTrial	 allStim	 ra
39	 7	 0	 x	 LineStimuli//allStim/stimNo123r0c0v1.5.jpg	 r	 2.180	 GoodTrial	 allStim	 ra
40	 7	 1	 right	 LineStimuli//allStim/stimNo98r8c21v1.5.jpg	 r	 2.754	 GoodTrial	 allStim	 ra
41	 7	 0	 x	 LineStimuli//allStim/stimNo126r0c0v1.5.jpg	 r	 1.947	 GoodTrial	 allStim	 ra
42	 7	 0	 x	 LineStimuli//allStim/stimNo145r0c0v4.3.jpg	 r	 1.749	 GoodTrial	 allStim	 ra
43	 7	 1	 right	 LineStimuli//allStim/stimNo117r10c21v4.3.jpg	 l	 1.525	 GoodTrial	 allStim	 ra
44	 7	 0	 x	 LineStimuli//allStim/stimNo149r0c0v3.3.jpg	 r	 1.922	 GoodTrial	 allStim	 ra
45	 7	 1	 right	 LineStimuli//allStim/stimNo111r11c21v2.3.jpg	 l	 1.616	 GoodTrial	 allStim	 ra
46	 7	 0	 x	 LineStimuli//allStim/stimNo150r0c0v1.8.jpg	 r	 2.348	 GoodTrial	 allStim	 ra
47	 7	 1	 right	 LineStimuli//allStim/stimNo92r14c21v2.8.jpg	 l	 1.648	 GoodTrial	 allStim	 ra
48	 7	 1	 left	 LineStimuli//allStim/stimNo110r7c3v1.5.jpg	 r	 1.666	 GoodTrial	 allStim	 ra
49	 7	 0	 x	 LineStimuli//allStim/stimNo158r0c0v2.8.jpg	 r	 2.577	 GoodTrial	 allStim	 ra
50	 7	 0	 x	 LineStimuli//allStim/stimNo156r0c0v3.8.jpg	 r	 1.833	 GoodTrial	 allStim	 ra
