Trial	Block	Target_pr	Target_side	Name	Key	RT	Message	Block_Type	Condition
1	 1	 1	 right	 LineStimuli//allStim/stimNo111r11c21v2.3.jpg	 l	 12.829	 GoodTrial	 allStim	 ra
2	 1	 0	 x	 LineStimuli//allStim/stimNo135r0c0v2.3.jpg	 r	 6.547	 GoodTrial	 allStim	 ra
3	 1	 1	 left	 LineStimuli//allStim/stimNo104r4c4v3.3.jpg	 l	 1.785	 GoodTrial	 allStim	 ra
4	 1	 1	 right	 LineStimuli//allStim/stimNo118r11c13v4.3.jpg	 l	 1.753	 GoodTrial	 allStim	 ra
5	 1	 1	 left	 LineStimuli//allStim/stimNo81r6c8v1.8.jpg	 l	 1.858	 GoodTrial	 allStim	 ra
6	 1	 1	 left	 LineStimuli//allStim/stimNo93r9c9v4.3.jpg	 l	 1.732	 GoodTrial	 allStim	 ra
7	 1	 0	 x	 LineStimuli//allStim/stimNo128r0c0v1.8.jpg	 r	 3.422	 GoodTrial	 allStim	 ra
8	 1	 0	 x	 LineStimuli//allStim/stimNo135r0c0v3.3.jpg	 r	 3.338	 GoodTrial	 allStim	 ra
9	 1	 1	 left	 LineStimuli//allStim/stimNo117r11c8v2.3.jpg	 l	 2.754	 GoodTrial	 allStim	 ra
10	 1	 1	 right	 LineStimuli//allStim/stimNo111r9c15v2.8.jpg	 l	 1.897	 GoodTrial	 allStim	 ra
11	 1	 0	 x	 LineStimuli//allStim/stimNo160r0c0v3.8.jpg	 r	 3.496	 GoodTrial	 allStim	 ra
12	 1	 0	 x	 LineStimuli//allStim/stimNo134r0c0v2.3.jpg	 r	 2.640	 GoodTrial	 allStim	 ra
13	 1	 1	 right	 LineStimuli//allStim/stimNo111r4c21v1.8.jpg	 l	 2.650	 GoodTrial	 allStim	 ra
14	 1	 1	 right	 LineStimuli//allStim/stimNo118r5c16v2.8.jpg	 l	 2.009	 GoodTrial	 allStim	 ra
15	 1	 0	 x	 LineStimuli//allStim/stimNo123r0c0v3.3.jpg	 r	 2.442	 GoodTrial	 allStim	 ra
16	 1	 1	 left	 LineStimuli//allStim/stimNo113r4c4v1.5.jpg	 l	 2.731	 GoodTrial	 allStim	 ra
17	 1	 0	 x	 LineStimuli//allStim/stimNo140r0c0v2.8.jpg	 r	 3.287	 GoodTrial	 allStim	 ra
18	 1	 0	 x	 LineStimuli//allStim/stimNo150r0c0v3.8.jpg	 r	 2.433	 GoodTrial	 allStim	 ra
19	 1	 1	 left	 LineStimuli//allStim/stimNo89r8c9v1.5.jpg	 r	 2.953	 GoodTrial	 allStim	 ra
20	 1	 1	 left	 LineStimuli//allStim/stimNo117r7c8v1.5.jpg	 r	 3.365	 GoodTrial	 allStim	 ra
21	 1	 1	 left	 LineStimuli//allStim/stimNo100r8c6v2.3.jpg	 l	 1.894	 GoodTrial	 allStim	 ra
22	 1	 1	 left	 LineStimuli//allStim/stimNo108r5c8v4.3.jpg	 l	 1.560	 GoodTrial	 allStim	 ra
23	 1	 1	 right	 LineStimuli//allStim/stimNo114r11c21v3.3.jpg	 l	 2.140	 GoodTrial	 allStim	 ra
24	 1	 1	 right	 LineStimuli//allStim/stimNo98r4c21v3.3.jpg	 l	 2.489	 GoodTrial	 allStim	 ra
25	 1	 0	 x	 LineStimuli//allStim/stimNo153r0c0v2.3.jpg	 r	 3.127	 GoodTrial	 allStim	 ra
26	 1	 1	 left	 LineStimuli//allStim/stimNo115r7c3v2.3.jpg	 l	 1.962	 GoodTrial	 allStim	 ra
27	 1	 0	 x	 LineStimuli//allStim/stimNo157r0c0v1.8.jpg	 r	 3.023	 GoodTrial	 allStim	 ra
28	 1	 0	 x	 LineStimuli//allStim/stimNo125r0c0v4.3.jpg	 r	 2.896	 GoodTrial	 allStim	 ra
29	 1	 1	 right	 LineStimuli//allStim/stimNo115r14c18v1.5.jpg	 r	 3.055	 GoodTrial	 allStim	 ra
30	 1	 0	 x	 LineStimuli//allStim/stimNo154r0c0v3.3.jpg	 r	 3.633	 GoodTrial	 allStim	 ra
31	 1	 1	 right	 LineStimuli//allStim/stimNo99r2c13v3.8.jpg	 l	 1.721	 GoodTrial	 allStim	 ra
32	 1	 1	 left	 LineStimuli//allStim/stimNo104r15c2v4.3.jpg	 l	 1.856	 GoodTrial	 allStim	 ra
33	 1	 1	 right	 LineStimuli//allStim/stimNo114r10c14v3.8.jpg	 l	 2.276	 GoodTrial	 allStim	 ra
34	 1	 1	 right	 LineStimuli//allStim/stimNo92r2c20v4.3.jpg	 l	 1.838	 GoodTrial	 allStim	 ra
35	 1	 1	 left	 LineStimuli//allStim/stimNo96r15c4v1.5.jpg	 l	 2.912	 GoodTrial	 allStim	 ra
36	 1	 0	 x	 LineStimuli//allStim/stimNo143r0c0v3.8.jpg	 r	 4.400	 GoodTrial	 allStim	 ra
37	 1	 1	 left	 LineStimuli//allStim/stimNo88r10c3v4.3.jpg	 l	 1.790	 GoodTrial	 allStim	 ra
38	 1	 0	 x	 LineStimuli//allStim/stimNo159r0c0v2.3.jpg	 r	 3.080	 GoodTrial	 allStim	 ra
39	 1	 1	 left	 LineStimuli//allStim/stimNo102r7c6v1.5.jpg	 r	 3.577	 GoodTrial	 allStim	 ra
40	 1	 1	 right	 LineStimuli//allStim/stimNo104r3c21v1.8.jpg	 r	 3.814	 GoodTrial	 allStim	 ra
41	 1	 0	 x	 LineStimuli//allStim/stimNo152r0c0v4.3.jpg	 r	 4.256	 GoodTrial	 allStim	 ra
42	 1	 1	 left	 LineStimuli//allStim/stimNo99r10c3v1.5.jpg	 r	 3.808	 GoodTrial	 allStim	 ra
43	 1	 1	 left	 LineStimuli//allStim/stimNo110r6c7v4.3.jpg	 l	 1.592	 GoodTrial	 allStim	 ra
44	 1	 1	 left	 LineStimuli//allStim/stimNo89r11c6v1.8.jpg	 r	 2.729	 GoodTrial	 allStim	 ra
45	 1	 1	 left	 LineStimuli//allStim/stimNo112r9c5v1.5.jpg	 r	 3.317	 GoodTrial	 allStim	 ra
46	 1	 0	 x	 LineStimuli//allStim/stimNo126r0c0v4.3.jpg	 r	 3.591	 GoodTrial	 allStim	 ra
47	 1	 0	 x	 LineStimuli//allStim/stimNo123r0c0v2.8.jpg	 r	 3.713	 GoodTrial	 allStim	 ra
48	 1	 1	 right	 LineStimuli//allStim/stimNo100r6c20v1.5.jpg	 r	 4.578	 GoodTrial	 allStim	 ra
49	 1	 0	 x	 LineStimuli//allStim/stimNo156r0c0v2.8.jpg	 r	 6.400	 GoodTrial	 allStim	 ra
50	 1	 0	 x	 LineStimuli//allStim/stimNo121r0c0v3.8.jpg	 r	 3.121	 GoodTrial	 allStim	 ra
1	 2	 0	 x	 LineStimuli//allStim/stimNo143r0c0v3.3.jpg	 r	 3.929	 GoodTrial	 allStim	 ra
2	 2	 1	 right	 LineStimuli//allStim/stimNo98r4c21v3.3.jpg	 l	 1.998	 GoodTrial	 allStim	 ra
3	 2	 0	 x	 LineStimuli//allStim/stimNo130r0c0v1.5.jpg	 r	 4.664	 GoodTrial	 allStim	 ra
4	 2	 0	 x	 LineStimuli//allStim/stimNo142r0c0v2.8.jpg	 r	 2.767	 GoodTrial	 allStim	 ra
5	 2	 0	 x	 LineStimuli//allStim/stimNo132r0c0v3.3.jpg	 r	 2.311	 GoodTrial	 allStim	 ra
6	 2	 0	 x	 LineStimuli//allStim/stimNo153r0c0v3.3.jpg	 r	 2.032	 GoodTrial	 allStim	 ra
7	 2	 1	 right	 LineStimuli//allStim/stimNo99r6c17v3.3.jpg	 l	 1.601	 GoodTrial	 allStim	 ra
8	 2	 0	 x	 LineStimuli//allStim/stimNo156r0c0v2.8.jpg	 r	 1.986	 GoodTrial	 allStim	 ra
9	 2	 0	 x	 LineStimuli//allStim/stimNo147r0c0v2.3.jpg	 r	 1.958	 GoodTrial	 allStim	 ra
10	 2	 1	 right	 LineStimuli//allStim/stimNo92r6c21v3.8.jpg	 l	 1.667	 GoodTrial	 allStim	 ra
11	 2	 0	 x	 LineStimuli//allStim/stimNo160r0c0v3.8.jpg	 r	 2.041	 GoodTrial	 allStim	 ra
12	 2	 1	 right	 LineStimuli//allStim/stimNo102r10c17v3.8.jpg	 l	 1.565	 GoodTrial	 allStim	 ra
13	 2	 1	 left	 LineStimuli//allStim/stimNo119r3c2v2.3.jpg	 l	 2.195	 GoodTrial	 allStim	 ra
14	 2	 1	 right	 LineStimuli//allStim/stimNo99r9c18v2.8.jpg	 l	 1.966	 GoodTrial	 allStim	 ra
15	 2	 0	 x	 LineStimuli//allStim/stimNo151r0c0v2.8.jpg	 r	 2.018	 GoodTrial	 allStim	 ra
16	 2	 0	 x	 LineStimuli//allStim/stimNo153r0c0v2.3.jpg	 r	 1.844	 GoodTrial	 allStim	 ra
17	 2	 0	 x	 LineStimuli//allStim/stimNo127r0c0v2.8.jpg	 r	 1.914	 GoodTrial	 allStim	 ra
18	 2	 1	 right	 LineStimuli//allStim/stimNo111r4c21v1.8.jpg	 r	 1.772	 GoodTrial	 allStim	 ra
19	 2	 1	 left	 LineStimuli//allStim/stimNo93r3c5v3.3.jpg	 l	 1.505	 GoodTrial	 allStim	 ra
20	 2	 0	 x	 LineStimuli//allStim/stimNo123r0c0v2.8.jpg	 r	 2.394	 GoodTrial	 allStim	 ra
21	 2	 1	 left	 LineStimuli//allStim/stimNo108r13c6v2.8.jpg	 l	 1.792	 GoodTrial	 allStim	 ra
22	 2	 1	 left	 LineStimuli//allStim/stimNo83r8c3v3.3.jpg	 l	 1.562	 GoodTrial	 allStim	 ra
23	 2	 1	 right	 LineStimuli//allStim/stimNo109r6c18v2.8.jpg	 l	 1.570	 GoodTrial	 allStim	 ra
24	 2	 0	 x	 LineStimuli//allStim/stimNo141r0c0v3.8.jpg	 r	 2.991	 GoodTrial	 allStim	 ra
25	 2	 0	 x	 LineStimuli//allStim/stimNo144r0c0v3.8.jpg	 r	 1.765	 GoodTrial	 allStim	 ra
26	 2	 0	 x	 LineStimuli//allStim/stimNo160r0c0v3.3.jpg	 r	 2.745	 GoodTrial	 allStim	 ra
27	 2	 0	 x	 LineStimuli//allStim/stimNo124r0c0v3.3.jpg	 r	 2.927	 GoodTrial	 allStim	 ra
28	 2	 1	 right	 LineStimuli//allStim/stimNo94r12c13v4.3.jpg	 l	 1.657	 GoodTrial	 allStim	 ra
29	 2	 1	 left	 LineStimuli//allStim/stimNo106r9c9v3.8.jpg	 l	 1.615	 GoodTrial	 allStim	 ra
30	 2	 0	 x	 LineStimuli//allStim/stimNo122r0c0v3.8.jpg	 r	 3.004	 GoodTrial	 allStim	 ra
31	 2	 0	 x	 LineStimuli//allStim/stimNo154r0c0v4.3.jpg	 r	 2.680	 GoodTrial	 allStim	 ra
32	 2	 0	 x	 LineStimuli//allStim/stimNo133r0c0v3.8.jpg	 r	 3.651	 GoodTrial	 allStim	 ra
33	 2	 1	 left	 LineStimuli//allStim/stimNo113r11c7v4.3.jpg	 l	 1.623	 GoodTrial	 allStim	 ra
34	 2	 0	 x	 LineStimuli//allStim/stimNo144r0c0v2.8.jpg	 r	 2.494	 GoodTrial	 allStim	 ra
35	 2	 0	 x	 LineStimuli//allStim/stimNo122r0c0v1.8.jpg	 r	 2.408	 GoodTrial	 allStim	 ra
36	 2	 1	 left	 LineStimuli//allStim/stimNo91r14c4v1.8.jpg	 r	 2.277	 GoodTrial	 allStim	 ra
37	 2	 1	 left	 LineStimuli//allStim/stimNo102r3c2v2.8.jpg	 l	 1.635	 GoodTrial	 allStim	 ra
38	 2	 0	 x	 LineStimuli//allStim/stimNo131r0c0v3.8.jpg	 r	 3.373	 GoodTrial	 allStim	 ra
39	 2	 1	 right	 LineStimuli//allStim/stimNo95r6c14v1.5.jpg	 r	 2.319	 GoodTrial	 allStim	 ra
40	 2	 1	 left	 LineStimuli//allStim/stimNo116r4c7v1.8.jpg	 l	 1.728	 GoodTrial	 allStim	 ra
41	 2	 0	 x	 LineStimuli//allStim/stimNo123r0c0v3.8.jpg	 r	 4.813	 GoodTrial	 allStim	 ra
42	 2	 0	 x	 LineStimuli//allStim/stimNo148r0c0v1.8.jpg	 r	 2.816	 GoodTrial	 allStim	 ra
43	 2	 1	 right	 LineStimuli//allStim/stimNo119r6c19v1.5.jpg	 l	 2.427	 GoodTrial	 allStim	 ra
44	 2	 1	 right	 LineStimuli//allStim/stimNo90r15c13v1.8.jpg	 r	 3.084	 GoodTrial	 allStim	 ra
45	 2	 0	 x	 LineStimuli//allStim/stimNo140r0c0v1.8.jpg	 r	 3.760	 GoodTrial	 allStim	 ra
46	 2	 1	 left	 LineStimuli//allStim/stimNo103r15c10v1.8.jpg	 r	 4.080	 GoodTrial	 allStim	 ra
47	 2	 1	 left	 LineStimuli//allStim/stimNo91r9c3v1.5.jpg	 l	 7.448	 GoodTrial	 allStim	 ra
48	 2	 0	 x	 LineStimuli//allStim/stimNo140r0c0v3.3.jpg	 r	 4.691	 GoodTrial	 allStim	 ra
49	 2	 1	 right	 LineStimuli//allStim/stimNo84r3c18v1.5.jpg	 l	 5.251	 GoodTrial	 allStim	 ra
50	 2	 0	 x	 LineStimuli//allStim/stimNo155r0c0v3.3.jpg	 r	 4.745	 GoodTrial	 allStim	 ra
1	 3	 1	 right	 LineStimuli//allStim/stimNo112r10c16v4.3.jpg	 l	 1.600	 GoodTrial	 allStim	 ra
2	 3	 0	 x	 LineStimuli//allStim/stimNo131r0c0v1.5.jpg	 r	 2.984	 GoodTrial	 allStim	 ra
3	 3	 1	 right	 LineStimuli//allStim/stimNo89r8c21v2.3.jpg	 l	 2.143	 GoodTrial	 allStim	 ra
4	 3	 1	 right	 LineStimuli//allStim/stimNo92r2c20v4.3.jpg	 l	 1.758	 GoodTrial	 allStim	 ra
5	 3	 1	 left	 LineStimuli//allStim/stimNo104r2c4v2.3.jpg	 l	 1.625	 GoodTrial	 allStim	 ra
6	 3	 0	 x	 LineStimuli//allStim/stimNo140r0c0v2.3.jpg	 r	 3.324	 GoodTrial	 allStim	 ra
7	 3	 0	 x	 LineStimuli//allStim/stimNo128r0c0v4.3.jpg	 r	 2.523	 GoodTrial	 allStim	 ra
8	 3	 1	 left	 LineStimuli//allStim/stimNo94r8c9v2.3.jpg	 r	 2.588	 GoodTrial	 allStim	 ra
9	 3	 0	 x	 LineStimuli//allStim/stimNo121r0c0v1.5.jpg	 r	 4.601	 GoodTrial	 allStim	 ra
10	 3	 1	 right	 LineStimuli//allStim/stimNo89r3c17v4.3.jpg	 l	 1.671	 GoodTrial	 allStim	 ra
11	 3	 1	 right	 LineStimuli//allStim/stimNo115r14c18v1.5.jpg	 r	 2.169	 GoodTrial	 allStim	 ra
12	 3	 1	 left	 LineStimuli//allStim/stimNo115r14c10v3.8.jpg	 l	 2.303	 GoodTrial	 allStim	 ra
13	 3	 0	 x	 LineStimuli//allStim/stimNo136r0c0v4.3.jpg	 r	 2.823	 GoodTrial	 allStim	 ra
14	 3	 1	 left	 LineStimuli//allStim/stimNo88r15c2v2.3.jpg	 r	 4.121	 GoodTrial	 allStim	 ra
15	 3	 1	 left	 LineStimuli//allStim/stimNo86r7c3v4.3.jpg	 l	 1.538	 GoodTrial	 allStim	 ra
16	 3	 1	 right	 LineStimuli//allStim/stimNo105r7c20v3.3.jpg	 l	 1.734	 GoodTrial	 allStim	 ra
17	 3	 0	 x	 LineStimuli//allStim/stimNo126r0c0v1.5.jpg	 r	 9.480	 GoodTrial	 allStim	 ra
18	 3	 0	 x	 LineStimuli//allStim/stimNo122r0c0v2.8.jpg	 r	 4.331	 GoodTrial	 allStim	 ra
19	 3	 1	 left	 LineStimuli//allStim/stimNo107r5c6v2.8.jpg	 l	 1.575	 GoodTrial	 allStim	 ra
20	 3	 0	 x	 LineStimuli//allStim/stimNo144r0c0v3.3.jpg	 r	 4.644	 GoodTrial	 allStim	 ra
21	 3	 1	 right	 LineStimuli//allStim/stimNo101r5c20v1.5.jpg	 r	 7.052	 GoodTrial	 allStim	 ra
22	 3	 0	 x	 LineStimuli//allStim/stimNo124r0c0v3.8.jpg	 r	 4.367	 GoodTrial	 allStim	 ra
23	 3	 0	 x	 LineStimuli//allStim/stimNo148r0c0v2.8.jpg	 r	 5.324	 GoodTrial	 allStim	 ra
24	 3	 1	 right	 LineStimuli//allStim/stimNo117r10c21v4.3.jpg	 l	 1.688	 GoodTrial	 allStim	 ra
25	 3	 0	 x	 LineStimuli//allStim/stimNo124r0c0v1.5.jpg	 l	 2.483	 GoodTrial	 allStim	 ra
26	 3	 0	 x	 LineStimuli//allStim/stimNo160r0c0v4.3.jpg	 r	 3.202	 GoodTrial	 allStim	 ra
27	 3	 1	 left	 LineStimuli//allStim/stimNo97r3c3v2.3.jpg	 l	 1.851	 GoodTrial	 allStim	 ra
28	 3	 0	 x	 LineStimuli//allStim/stimNo121r0c0v1.8.jpg	 r	 8.116	 GoodTrial	 allStim	 ra
29	 3	 0	 x	 LineStimuli//allStim/stimNo128r0c0v2.3.jpg	 r	 4.027	 GoodTrial	 allStim	 ra
30	 3	 0	 x	 LineStimuli//allStim/stimNo129r0c0v3.3.jpg	 r	 3.394	 GoodTrial	 allStim	 ra
31	 3	 1	 left	 LineStimuli//allStim/stimNo95r13c9v2.3.jpg	 l	 4.400	 GoodTrial	 allStim	 ra
32	 3	 1	 right	 LineStimuli//allStim/stimNo119r3c21v1.8.jpg	 l	 3.766	 GoodTrial	 allStim	 ra
33	 3	 1	 right	 LineStimuli//allStim/stimNo83r6c13v1.8.jpg	 l	 7.469	 GoodTrial	 allStim	 ra
34	 3	 1	 right	 LineStimuli//allStim/stimNo103r13c17v1.5.jpg	 l	 3.126	 GoodTrial	 allStim	 ra
35	 3	 0	 x	 LineStimuli//allStim/stimNo156r0c0v2.8.jpg	 r	 4.949	 GoodTrial	 allStim	 ra
36	 3	 0	 x	 LineStimuli//allStim/stimNo130r0c0v1.5.jpg	 r	 3.243	 GoodTrial	 allStim	 ra
37	 3	 0	 x	 LineStimuli//allStim/stimNo142r0c0v3.8.jpg	 r	 2.489	 GoodTrial	 allStim	 ra
38	 3	 0	 x	 LineStimuli//allStim/stimNo158r0c0v1.8.jpg	 r	 2.960	 GoodTrial	 allStim	 ra
39	 3	 0	 x	 LineStimuli//allStim/stimNo144r0c0v1.5.jpg	 l	 1.941	 GoodTrial	 allStim	 ra
40	 3	 1	 left	 LineStimuli//allStim/stimNo120r14c2v1.5.jpg	 r	 3.716	 GoodTrial	 allStim	 ra
41	 3	 0	 x	 LineStimuli//allStim/stimNo131r0c0v3.3.jpg	 r	 4.261	 GoodTrial	 allStim	 ra
42	 3	 1	 left	 LineStimuli//allStim/stimNo89r10c7v3.8.jpg	 l	 1.589	 GoodTrial	 allStim	 ra
43	 3	 0	 x	 LineStimuli//allStim/stimNo149r0c0v1.8.jpg	 r	 2.426	 GoodTrial	 allStim	 ra
44	 3	 0	 x	 LineStimuli//allStim/stimNo146r0c0v3.8.jpg	 r	 1.879	 GoodTrial	 allStim	 ra
45	 3	 1	 left	 LineStimuli//allStim/stimNo112r3c2v2.3.jpg	 l	 1.630	 GoodTrial	 allStim	 ra
46	 3	 0	 x	 LineStimuli//allStim/stimNo139r0c0v2.3.jpg	 r	 1.809	 GoodTrial	 allStim	 ra
47	 3	 1	 right	 LineStimuli//allStim/stimNo94r12c13v4.3.jpg	 l	 1.560	 GoodTrial	 allStim	 ra
48	 3	 0	 x	 LineStimuli//allStim/stimNo131r0c0v3.8.jpg	 r	 3.056	 GoodTrial	 allStim	 ra
49	 3	 0	 x	 LineStimuli//allStim/stimNo156r0c0v1.5.jpg	 r	 6.248	 GoodTrial	 allStim	 ra
50	 3	 0	 x	 LineStimuli//allStim/stimNo141r0c0v2.3.jpg	 r	 3.988	 GoodTrial	 allStim	 ra
1	 4	 1	 left	 LineStimuli//allStim/stimNo110r7c3v1.5.jpg	 r	 6.501	 GoodTrial	 allStim	 ra
2	 4	 1	 left	 LineStimuli//allStim/stimNo97r15c9v3.8.jpg	 l	 1.650	 GoodTrial	 allStim	 ra
3	 4	 0	 x	 LineStimuli//allStim/stimNo133r0c0v2.8.jpg	 r	 4.064	 GoodTrial	 allStim	 ra
4	 4	 1	 right	 LineStimuli//allStim/stimNo99r6c17v3.3.jpg	 l	 1.564	 GoodTrial	 allStim	 ra
5	 4	 0	 x	 LineStimuli//allStim/stimNo132r0c0v2.8.jpg	 r	 3.062	 GoodTrial	 allStim	 ra
6	 4	 0	 x	 LineStimuli//allStim/stimNo135r0c0v1.8.jpg	 r	 7.144	 GoodTrial	 allStim	 ra
7	 4	 0	 x	 LineStimuli//allStim/stimNo159r0c0v2.3.jpg	 r	 5.734	 GoodTrial	 allStim	 ra
8	 4	 0	 x	 LineStimuli//allStim/stimNo145r0c0v1.5.jpg	 l	 3.989	 GoodTrial	 allStim	 ra
9	 4	 1	 left	 LineStimuli//allStim/stimNo100r8c6v2.3.jpg	 l	 1.812	 GoodTrial	 allStim	 ra
10	 4	 1	 right	 LineStimuli//allStim/stimNo93r3c17v1.8.jpg	 r	 6.040	 GoodTrial	 allStim	 ra
11	 4	 0	 x	 LineStimuli//allStim/stimNo148r0c0v1.5.jpg	 r	 8.223	 GoodTrial	 allStim	 ra
12	 4	 0	 x	 LineStimuli//allStim/stimNo136r0c0v3.3.jpg	 r	 3.231	 GoodTrial	 allStim	 ra
13	 4	 0	 x	 LineStimuli//allStim/stimNo124r0c0v2.8.jpg	 r	 3.639	 GoodTrial	 allStim	 ra
14	 4	 1	 left	 LineStimuli//allStim/stimNo114r7c8v2.3.jpg	 l	 1.668	 GoodTrial	 allStim	 ra
15	 4	 1	 right	 LineStimuli//allStim/stimNo101r8c14v2.3.jpg	 l	 1.933	 GoodTrial	 allStim	 ra
16	 4	 1	 left	 LineStimuli//allStim/stimNo112r9c5v1.5.jpg	 l	 2.648	 GoodTrial	 allStim	 ra
17	 4	 1	 right	 LineStimuli//allStim/stimNo119r12c17v4.3.jpg	 l	 1.641	 GoodTrial	 allStim	 ra
18	 4	 1	 left	 LineStimuli//allStim/stimNo120r14c2v1.5.jpg	 l	 5.305	 GoodTrial	 allStim	 ra
19	 4	 1	 left	 LineStimuli//allStim/stimNo95r13c9v2.3.jpg	 l	 2.746	 GoodTrial	 allStim	 ra
20	 4	 1	 left	 LineStimuli//allStim/stimNo109r8c6v1.5.jpg	 r	 3.668	 GoodTrial	 allStim	 ra
21	 4	 1	 right	 LineStimuli//allStim/stimNo90r8c17v3.8.jpg	 l	 1.758	 GoodTrial	 allStim	 ra
22	 4	 0	 x	 LineStimuli//allStim/stimNo155r0c0v4.3.jpg	 r	 2.663	 GoodTrial	 allStim	 ra
23	 4	 0	 x	 LineStimuli//allStim/stimNo139r0c0v3.3.jpg	 r	 2.227	 GoodTrial	 allStim	 ra
24	 4	 0	 x	 LineStimuli//allStim/stimNo152r0c0v2.8.jpg	 r	 2.088	 GoodTrial	 allStim	 ra
25	 4	 0	 x	 LineStimuli//allStim/stimNo126r0c0v3.3.jpg	 r	 3.097	 GoodTrial	 allStim	 ra
26	 4	 1	 right	 LineStimuli//allStim/stimNo117r10c16v1.8.jpg	 l	 4.163	 GoodTrial	 allStim	 ra
27	 4	 0	 x	 LineStimuli//allStim/stimNo135r0c0v3.3.jpg	 r	 3.087	 GoodTrial	 allStim	 ra
28	 4	 0	 x	 LineStimuli//allStim/stimNo133r0c0v1.5.jpg	 l	 2.560	 GoodTrial	 allStim	 ra
29	 4	 1	 left	 LineStimuli//allStim/stimNo87r14c2v1.8.jpg	 l	 4.550	 GoodTrial	 allStim	 ra
30	 4	 1	 left	 LineStimuli//allStim/stimNo103r15c10v1.8.jpg	 r	 5.345	 GoodTrial	 allStim	 ra
31	 4	 0	 x	 LineStimuli//allStim/stimNo139r0c0v4.3.jpg	 r	 3.543	 GoodTrial	 allStim	 ra
32	 4	 1	 right	 LineStimuli//allStim/stimNo114r8c19v2.8.jpg	 l	 2.129	 GoodTrial	 allStim	 ra
33	 4	 0	 x	 LineStimuli//allStim/stimNo129r0c0v2.8.jpg	 r	 3.067	 GoodTrial	 allStim	 ra
34	 4	 0	 x	 LineStimuli//allStim/stimNo128r0c0v2.3.jpg	 r	 2.844	 GoodTrial	 allStim	 ra
35	 4	 1	 right	 LineStimuli//allStim/stimNo107r2c17v3.3.jpg	 l	 1.676	 GoodTrial	 allStim	 ra
36	 4	 0	 x	 LineStimuli//allStim/stimNo151r0c0v1.5.jpg	 r	 6.613	 GoodTrial	 allStim	 ra
37	 4	 0	 x	 LineStimuli//allStim/stimNo130r0c0v3.3.jpg	 r	 3.068	 GoodTrial	 allStim	 ra
38	 4	 0	 x	 LineStimuli//allStim/stimNo153r0c0v3.3.jpg	 r	 2.448	 GoodTrial	 allStim	 ra
39	 4	 0	 x	 LineStimuli//allStim/stimNo139r0c0v1.5.jpg	 r	 5.924	 GoodTrial	 allStim	 ra
40	 4	 0	 x	 LineStimuli//allStim/stimNo149r0c0v3.8.jpg	 r	 3.864	 GoodTrial	 allStim	 ra
41	 4	 0	 x	 LineStimuli//allStim/stimNo137r0c0v2.3.jpg	 r	 6.887	 GoodTrial	 allStim	 ra
42	 4	 0	 x	 LineStimuli//allStim/stimNo132r0c0v1.8.jpg	 r	 2.798	 GoodTrial	 allStim	 ra
43	 4	 1	 right	 LineStimuli//allStim/stimNo95r5c21v3.8.jpg	 l	 1.625	 GoodTrial	 allStim	 ra
44	 4	 0	 x	 LineStimuli//allStim/stimNo136r0c0v1.8.jpg	 r	 3.312	 GoodTrial	 allStim	 ra
45	 4	 1	 right	 LineStimuli//allStim/stimNo87r15c13v3.3.jpg	 l	 1.703	 GoodTrial	 allStim	 ra
46	 4	 0	 x	 LineStimuli//allStim/stimNo139r0c0v1.8.jpg	 r	 4.619	 GoodTrial	 allStim	 ra
47	 4	 1	 right	 LineStimuli//allStim/stimNo99r9c18v2.8.jpg	 l	 1.603	 GoodTrial	 allStim	 ra
48	 4	 1	 right	 LineStimuli//allStim/stimNo99r2c13v2.3.jpg	 l	 2.301	 GoodTrial	 allStim	 ra
49	 4	 1	 left	 LineStimuli//allStim/stimNo107r5c6v2.8.jpg	 l	 1.586	 GoodTrial	 allStim	 ra
50	 4	 1	 right	 LineStimuli//allStim/stimNo88r9c14v3.3.jpg	 l	 1.688	 GoodTrial	 allStim	 ra
1	 5	 0	 x	 LineStimuli//allStim/stimNo137r0c0v3.8.jpg	 r	 3.798	 GoodTrial	 allStim	 ra
2	 5	 0	 x	 LineStimuli//allStim/stimNo160r0c0v1.5.jpg	 l	 2.831	 GoodTrial	 allStim	 ra
3	 5	 1	 left	 LineStimuli//allStim/stimNo113r3c8v2.3.jpg	 l	 2.679	 GoodTrial	 allStim	 ra
4	 5	 1	 right	 LineStimuli//allStim/stimNo96r2c13v3.8.jpg	 l	 1.793	 GoodTrial	 allStim	 ra
5	 5	 1	 left	 LineStimuli//allStim/stimNo88r15c2v2.3.jpg	 l	 2.035	 GoodTrial	 allStim	 ra
6	 5	 0	 x	 LineStimuli//allStim/stimNo144r0c0v4.3.jpg	 r	 2.868	 GoodTrial	 allStim	 ra
7	 5	 1	 right	 LineStimuli//allStim/stimNo113r13c15v3.3.jpg	 l	 1.600	 GoodTrial	 allStim	 ra
8	 5	 1	 right	 LineStimuli//allStim/stimNo101r12c16v2.8.jpg	 l	 1.567	 GoodTrial	 allStim	 ra
9	 5	 1	 left	 LineStimuli//allStim/stimNo105r6c5v1.8.jpg	 l	 1.856	 GoodTrial	 allStim	 ra
10	 5	 0	 x	 LineStimuli//allStim/stimNo152r0c0v2.3.jpg	 r	 2.627	 GoodTrial	 allStim	 ra
11	 5	 0	 x	 LineStimuli//allStim/stimNo128r0c0v1.5.jpg	 r	 2.983	 GoodTrial	 allStim	 ra
12	 5	 1	 left	 LineStimuli//allStim/stimNo113r9c5v2.8.jpg	 l	 1.599	 GoodTrial	 allStim	 ra
13	 5	 1	 right	 LineStimuli//allStim/stimNo118r3c16v3.3.jpg	 l	 1.705	 GoodTrial	 allStim	 ra
14	 5	 0	 x	 LineStimuli//allStim/stimNo151r0c0v3.8.jpg	 r	 2.253	 GoodTrial	 allStim	 ra
15	 5	 0	 x	 LineStimuli//allStim/stimNo123r0c0v2.3.jpg	 r	 4.734	 GoodTrial	 allStim	 ra
16	 5	 0	 x	 LineStimuli//allStim/stimNo130r0c0v1.5.jpg	 r	 2.476	 GoodTrial	 allStim	 ra
17	 5	 1	 right	 LineStimuli//allStim/stimNo110r7c14v2.8.jpg	 l	 1.607	 GoodTrial	 allStim	 ra
18	 5	 1	 left	 LineStimuli//allStim/stimNo105r5c4v2.8.jpg	 l	 1.663	 GoodTrial	 allStim	 ra
19	 5	 0	 x	 LineStimuli//allStim/stimNo131r0c0v1.8.jpg	 r	 4.371	 GoodTrial	 allStim	 ra
20	 5	 1	 right	 LineStimuli//allStim/stimNo120r8c20v2.8.jpg	 l	 2.447	 GoodTrial	 allStim	 ra
21	 5	 1	 left	 LineStimuli//allStim/stimNo90r10c4v4.3.jpg	 l	 1.577	 GoodTrial	 allStim	 ra
22	 5	 1	 right	 LineStimuli//allStim/stimNo89r5c21v3.3.jpg	 l	 1.936	 GoodTrial	 allStim	 ra
23	 5	 0	 x	 LineStimuli//allStim/stimNo127r0c0v1.5.jpg	 r	 2.684	 GoodTrial	 allStim	 ra
24	 5	 1	 right	 LineStimuli//allStim/stimNo117r6c17v3.8.jpg	 l	 1.609	 GoodTrial	 allStim	 ra
25	 5	 0	 x	 LineStimuli//allStim/stimNo147r0c0v4.3.jpg	 r	 3.384	 GoodTrial	 allStim	 ra
26	 5	 1	 left	 LineStimuli//allStim/stimNo87r3c5v4.3.jpg	 l	 1.542	 GoodTrial	 allStim	 ra
27	 5	 0	 x	 LineStimuli//allStim/stimNo152r0c0v1.5.jpg	 r	 2.713	 GoodTrial	 allStim	 ra
28	 5	 1	 right	 LineStimuli//allStim/stimNo118r11c15v1.8.jpg	 l	 2.970	 GoodTrial	 allStim	 ra
29	 5	 0	 x	 LineStimuli//allStim/stimNo139r0c0v3.8.jpg	 r	 2.229	 GoodTrial	 allStim	 ra
30	 5	 0	 x	 LineStimuli//allStim/stimNo159r0c0v2.3.jpg	 r	 2.186	 GoodTrial	 allStim	 ra
31	 5	 1	 left	 LineStimuli//allStim/stimNo110r4c3v3.3.jpg	 l	 1.591	 GoodTrial	 allStim	 ra
32	 5	 1	 left	 LineStimuli//allStim/stimNo113r11c7v4.3.jpg	 l	 1.760	 GoodTrial	 allStim	 ra
33	 5	 1	 left	 LineStimuli//allStim/stimNo95r4c9v1.8.jpg	 l	 1.942	 GoodTrial	 allStim	 ra
34	 5	 0	 x	 LineStimuli//allStim/stimNo152r0c0v4.3.jpg	 r	 4.168	 GoodTrial	 allStim	 ra
35	 5	 0	 x	 LineStimuli//allStim/stimNo129r0c0v2.3.jpg	 r	 3.736	 GoodTrial	 allStim	 ra
36	 5	 1	 right	 LineStimuli//allStim/stimNo118r5c16v2.8.jpg	 l	 1.698	 GoodTrial	 allStim	 ra
37	 5	 0	 x	 LineStimuli//allStim/stimNo157r0c0v4.3.jpg	 r	 2.641	 GoodTrial	 allStim	 ra
38	 5	 0	 x	 LineStimuli//allStim/stimNo156r0c0v4.3.jpg	 r	 2.803	 GoodTrial	 allStim	 ra
39	 5	 1	 left	 LineStimuli//allStim/stimNo116r2c2v2.3.jpg	 l	 1.591	 GoodTrial	 allStim	 ra
40	 5	 1	 right	 LineStimuli//allStim/stimNo118r9c20v1.5.jpg	 r	 3.616	 GoodTrial	 allStim	 ra
41	 5	 0	 x	 LineStimuli//allStim/stimNo150r0c0v1.5.jpg	 l	 4.907	 GoodTrial	 allStim	 ra
42	 5	 1	 right	 LineStimuli//allStim/stimNo103r13c17v1.5.jpg	 l	 2.510	 GoodTrial	 allStim	 ra
43	 5	 1	 right	 LineStimuli//allStim/stimNo85r4c15v2.8.jpg	 l	 1.548	 GoodTrial	 allStim	 ra
44	 5	 1	 right	 LineStimuli//allStim/stimNo90r15c13v1.8.jpg	 l	 2.018	 GoodTrial	 allStim	 ra
45	 5	 0	 x	 LineStimuli//allStim/stimNo133r0c0v1.8.jpg	 r	 4.154	 GoodTrial	 allStim	 ra
46	 5	 1	 left	 LineStimuli//allStim/stimNo95r11c9v4.3.jpg	 l	 1.567	 GoodTrial	 allStim	 ra
47	 5	 0	 x	 LineStimuli//allStim/stimNo125r0c0v3.8.jpg	 r	 2.108	 GoodTrial	 allStim	 ra
48	 5	 1	 right	 LineStimuli//allStim/stimNo87r15c13v3.3.jpg	 l	 1.635	 GoodTrial	 allStim	 ra
49	 5	 1	 right	 LineStimuli//allStim/stimNo105r3c18v1.5.jpg	 l	 4.496	 GoodTrial	 allStim	 ra
50	 5	 1	 left	 LineStimuli//allStim/stimNo112r3c2v2.3.jpg	 l	 1.645	 GoodTrial	 allStim	 ra
1	 6	 1	 left	 LineStimuli//allStim/stimNo108r5c8v4.3.jpg	 l	 1.503	 GoodTrial	 allStim	 ra
2	 6	 0	 x	 LineStimuli//allStim/stimNo134r0c0v3.8.jpg	 r	 2.988	 GoodTrial	 allStim	 ra
3	 6	 1	 right	 LineStimuli//allStim/stimNo82r11c20v3.3.jpg	 l	 1.570	 GoodTrial	 allStim	 ra
4	 6	 1	 right	 LineStimuli//allStim/stimNo112r5c15v3.3.jpg	 l	 1.518	 GoodTrial	 allStim	 ra
5	 6	 1	 left	 LineStimuli//allStim/stimNo110r7c9v3.8.jpg	 l	 1.482	 GoodTrial	 allStim	 ra
6	 6	 1	 left	 LineStimuli//allStim/stimNo102r3c2v2.8.jpg	 l	 1.617	 GoodTrial	 allStim	 ra
7	 6	 0	 x	 LineStimuli//allStim/stimNo158r0c0v1.5.jpg	 r	 2.514	 GoodTrial	 allStim	 ra
8	 6	 1	 left	 LineStimuli//allStim/stimNo106r9c9v3.3.jpg	 l	 1.550	 GoodTrial	 allStim	 ra
9	 6	 1	 right	 LineStimuli//allStim/stimNo102r6c18v2.3.jpg	 l	 1.681	 GoodTrial	 allStim	 ra
10	 6	 0	 x	 LineStimuli//allStim/stimNo148r0c0v1.8.jpg	 r	 1.972	 GoodTrial	 allStim	 ra
11	 6	 0	 x	 LineStimuli//allStim/stimNo127r0c0v2.3.jpg	 r	 1.942	 GoodTrial	 allStim	 ra
12	 6	 1	 right	 LineStimuli//allStim/stimNo99r6c17v3.3.jpg	 l	 1.626	 GoodTrial	 allStim	 ra
13	 6	 1	 right	 LineStimuli//allStim/stimNo97r15c18v1.8.jpg	 l	 2.168	 GoodTrial	 allStim	 ra
14	 6	 0	 x	 LineStimuli//allStim/stimNo135r0c0v1.8.jpg	 r	 2.693	 GoodTrial	 allStim	 ra
15	 6	 0	 x	 LineStimuli//allStim/stimNo134r0c0v1.8.jpg	 r	 2.310	 GoodTrial	 allStim	 ra
16	 6	 0	 x	 LineStimuli//allStim/stimNo136r0c0v1.5.jpg	 r	 1.956	 GoodTrial	 allStim	 ra
17	 6	 0	 x	 LineStimuli//allStim/stimNo129r0c0v2.3.jpg	 r	 1.772	 GoodTrial	 allStim	 ra
18	 6	 1	 left	 LineStimuli//allStim/stimNo83r4c2v4.3.jpg	 l	 1.552	 GoodTrial	 allStim	 ra
19	 6	 1	 right	 LineStimuli//allStim/stimNo93r3c17v1.8.jpg	 r	 1.846	 GoodTrial	 allStim	 ra
20	 6	 0	 x	 LineStimuli//allStim/stimNo152r0c0v3.8.jpg	 r	 2.480	 GoodTrial	 allStim	 ra
21	 6	 1	 left	 LineStimuli//allStim/stimNo110r6c7v4.3.jpg	 l	 1.491	 GoodTrial	 allStim	 ra
22	 6	 0	 x	 LineStimuli//allStim/stimNo157r0c0v3.8.jpg	 r	 2.195	 GoodTrial	 allStim	 ra
23	 6	 1	 right	 LineStimuli//allStim/stimNo112r13c17v2.8.jpg	 l	 1.681	 GoodTrial	 allStim	 ra
24	 6	 1	 right	 LineStimuli//allStim/stimNo114r10c15v4.3.jpg	 l	 1.643	 GoodTrial	 allStim	 ra
25	 6	 1	 left	 LineStimuli//allStim/stimNo91r2c3v2.8.jpg	 l	 1.717	 GoodTrial	 allStim	 ra
26	 6	 1	 left	 LineStimuli//allStim/stimNo86r7c7v3.8.jpg	 l	 1.517	 GoodTrial	 allStim	 ra
27	 6	 1	 left	 LineStimuli//allStim/stimNo116r7c7v1.5.jpg	 r	 3.258	 GoodTrial	 allStim	 ra
28	 6	 1	 left	 LineStimuli//allStim/stimNo117r2c5v3.3.jpg	 l	 1.472	 GoodTrial	 allStim	 ra
29	 6	 0	 x	 LineStimuli//allStim/stimNo128r0c0v3.3.jpg	 r	 2.407	 GoodTrial	 allStim	 ra
30	 6	 1	 right	 LineStimuli//allStim/stimNo110r15c19v2.3.jpg	 l	 1.841	 GoodTrial	 allStim	 ra
31	 6	 0	 x	 LineStimuli//allStim/stimNo131r0c0v2.3.jpg	 r	 2.064	 GoodTrial	 allStim	 ra
32	 6	 0	 x	 LineStimuli//allStim/stimNo153r0c0v4.3.jpg	 r	 1.772	 GoodTrial	 allStim	 ra
33	 6	 0	 x	 LineStimuli//allStim/stimNo149r0c0v4.3.jpg	 r	 1.699	 GoodTrial	 allStim	 ra
34	 6	 0	 x	 LineStimuli//allStim/stimNo156r0c0v1.5.jpg	 r	 5.552	 GoodTrial	 allStim	 ra
35	 6	 1	 right	 LineStimuli//allStim/stimNo99r12c16v1.8.jpg	 l	 1.694	 GoodTrial	 allStim	 ra
36	 6	 1	 left	 LineStimuli//allStim/stimNo95r13c9v2.3.jpg	 r	 2.777	 GoodTrial	 allStim	 ra
37	 6	 1	 right	 LineStimuli//allStim/stimNo99r2c13v3.8.jpg	 l	 1.626	 GoodTrial	 allStim	 ra
38	 6	 1	 left	 LineStimuli//allStim/stimNo82r4c6v2.8.jpg	 l	 1.521	 GoodTrial	 allStim	 ra
39	 6	 0	 x	 LineStimuli//allStim/stimNo143r0c0v2.8.jpg	 r	 1.691	 GoodTrial	 allStim	 ra
40	 6	 1	 right	 LineStimuli//allStim/stimNo97r6c21v4.3.jpg	 l	 1.680	 GoodTrial	 allStim	 ra
41	 6	 0	 x	 LineStimuli//allStim/stimNo121r0c0v2.8.jpg	 r	 1.848	 GoodTrial	 allStim	 ra
42	 6	 1	 left	 LineStimuli//allStim/stimNo106r3c7v1.5.jpg	 r	 1.869	 GoodTrial	 allStim	 ra
43	 6	 1	 right	 LineStimuli//allStim/stimNo87r13c19v2.3.jpg	 l	 1.738	 GoodTrial	 allStim	 ra
44	 6	 1	 right	 LineStimuli//allStim/stimNo99r14c18v4.3.jpg	 l	 1.657	 GoodTrial	 allStim	 ra
45	 6	 1	 left	 LineStimuli//allStim/stimNo104r2c4v2.3.jpg	 l	 1.555	 GoodTrial	 allStim	 ra
46	 6	 0	 x	 LineStimuli//allStim/stimNo144r0c0v3.3.jpg	 r	 2.025	 GoodTrial	 allStim	 ra
47	 6	 0	 x	 LineStimuli//allStim/stimNo124r0c0v4.3.jpg	 r	 2.059	 GoodTrial	 allStim	 ra
48	 6	 0	 x	 LineStimuli//allStim/stimNo138r0c0v3.8.jpg	 r	 2.070	 GoodTrial	 allStim	 ra
49	 6	 0	 x	 LineStimuli//allStim/stimNo121r0c0v1.8.jpg	 r	 2.008	 GoodTrial	 allStim	 ra
50	 6	 0	 x	 LineStimuli//allStim/stimNo133r0c0v2.8.jpg	 r	 1.732	 GoodTrial	 allStim	 ra
1	 7	 1	 left	 LineStimuli//allStim/stimNo82r4c6v2.8.jpg	 l	 1.599	 GoodTrial	 allStim	 ra
2	 7	 0	 x	 LineStimuli//allStim/stimNo158r0c0v3.3.jpg	 r	 2.069	 GoodTrial	 allStim	 ra
3	 7	 0	 x	 LineStimuli//allStim/stimNo128r0c0v3.8.jpg	 r	 2.064	 GoodTrial	 allStim	 ra
4	 7	 1	 right	 LineStimuli//allStim/stimNo105r7c20v3.3.jpg	 l	 1.557	 GoodTrial	 allStim	 ra
5	 7	 0	 x	 LineStimuli//allStim/stimNo160r0c0v3.8.jpg	 r	 1.619	 GoodTrial	 allStim	 ra
6	 7	 1	 left	 LineStimuli//allStim/stimNo86r8c9v2.3.jpg	 l	 1.561	 GoodTrial	 allStim	 ra
7	 7	 1	 right	 LineStimuli//allStim/stimNo90r3c15v1.5.jpg	 r	 1.517	 GoodTrial	 allStim	 ra
8	 7	 0	 x	 LineStimuli//allStim/stimNo160r0c0v1.8.jpg	 r	 5.729	 GoodTrial	 allStim	 ra
9	 7	 1	 left	 LineStimuli//allStim/stimNo113r4c4v1.5.jpg	 l	 1.856	 GoodTrial	 allStim	 ra
10	 7	 0	 x	 LineStimuli//allStim/stimNo154r0c0v1.8.jpg	 r	 4.622	 GoodTrial	 allStim	 ra
11	 7	 1	 left	 LineStimuli//allStim/stimNo89r10c7v3.8.jpg	 l	 1.523	 GoodTrial	 allStim	 ra
12	 7	 0	 x	 LineStimuli//allStim/stimNo132r0c0v1.8.jpg	 r	 3.452	 GoodTrial	 allStim	 ra
13	 7	 0	 x	 LineStimuli//allStim/stimNo148r0c0v3.3.jpg	 r	 2.177	 GoodTrial	 allStim	 ra
14	 7	 1	 left	 LineStimuli//allStim/stimNo104r8c6v2.8.jpg	 l	 1.617	 GoodTrial	 allStim	 ra
15	 7	 1	 right	 LineStimuli//allStim/stimNo111r9c15v2.8.jpg	 l	 1.864	 GoodTrial	 allStim	 ra
16	 7	 0	 x	 LineStimuli//allStim/stimNo151r0c0v4.3.jpg	 r	 2.368	 GoodTrial	 allStim	 ra
17	 7	 0	 x	 LineStimuli//allStim/stimNo135r0c0v2.3.jpg	 r	 2.381	 GoodTrial	 allStim	 ra
18	 7	 1	 right	 LineStimuli//allStim/stimNo109r7c17v1.8.jpg	 r	 2.847	 GoodTrial	 allStim	 ra
19	 7	 0	 x	 LineStimuli//allStim/stimNo156r0c0v1.8.jpg	 r	 3.230	 GoodTrial	 allStim	 ra
20	 7	 1	 right	 LineStimuli//allStim/stimNo110r7c14v2.8.jpg	 l	 1.688	 GoodTrial	 allStim	 ra
21	 7	 1	 left	 LineStimuli//allStim/stimNo86r7c3v4.3.jpg	 l	 1.470	 GoodTrial	 allStim	 ra
22	 7	 1	 right	 LineStimuli//allStim/stimNo108r13c15v1.5.jpg	 r	 3.793	 GoodTrial	 allStim	 ra
23	 7	 0	 x	 LineStimuli//allStim/stimNo139r0c0v2.8.jpg	 r	 2.887	 GoodTrial	 allStim	 ra
24	 7	 0	 x	 LineStimuli//allStim/stimNo139r0c0v4.3.jpg	 r	 2.495	 GoodTrial	 allStim	 ra
25	 7	 1	 right	 LineStimuli//allStim/stimNo87r6c13v3.8.jpg	 l	 1.580	 GoodTrial	 allStim	 ra
26	 7	 1	 left	 LineStimuli//allStim/stimNo83r4c2v4.3.jpg	 l	 1.561	 GoodTrial	 allStim	 ra
27	 7	 1	 left	 LineStimuli//allStim/stimNo116r7c7v1.5.jpg	 r	 4.648	 GoodTrial	 allStim	 ra
28	 7	 1	 right	 LineStimuli//allStim/stimNo101r12c16v2.8.jpg	 l	 1.720	 GoodTrial	 allStim	 ra
29	 7	 0	 x	 LineStimuli//allStim/stimNo153r0c0v1.8.jpg	 r	 6.995	 GoodTrial	 allStim	 ra
30	 7	 0	 x	 LineStimuli//allStim/stimNo131r0c0v3.8.jpg	 r	 2.240	 GoodTrial	 allStim	 ra
31	 7	 0	 x	 LineStimuli//allStim/stimNo138r0c0v2.8.jpg	 r	 2.008	 GoodTrial	 allStim	 ra
32	 7	 1	 left	 LineStimuli//allStim/stimNo100r8c6v2.3.jpg	 l	 1.691	 GoodTrial	 allStim	 ra
33	 7	 0	 x	 LineStimuli//allStim/stimNo147r0c0v1.8.jpg	 r	 4.016	 GoodTrial	 allStim	 ra
34	 7	 0	 x	 LineStimuli//allStim/stimNo139r0c0v3.3.jpg	 r	 2.033	 GoodTrial	 allStim	 ra
35	 7	 1	 left	 LineStimuli//allStim/stimNo105r5c4v2.8.jpg	 l	 1.503	 GoodTrial	 allStim	 ra
36	 7	 0	 x	 LineStimuli//allStim/stimNo141r0c0v4.3.jpg	 r	 1.921	 GoodTrial	 allStim	 ra
37	 7	 1	 left	 LineStimuli//allStim/stimNo111r15c7v3.3.jpg	 l	 1.880	 GoodTrial	 allStim	 ra
38	 7	 0	 x	 LineStimuli//allStim/stimNo156r0c0v1.5.jpg	 r	 2.164	 GoodTrial	 allStim	 ra
39	 7	 0	 x	 LineStimuli//allStim/stimNo121r0c0v2.8.jpg	 r	 1.945	 GoodTrial	 allStim	 ra
40	 7	 1	 right	 LineStimuli//allStim/stimNo103r3c19v2.8.jpg	 l	 1.872	 GoodTrial	 allStim	 ra
41	 7	 1	 left	 LineStimuli//allStim/stimNo110r4c3v3.3.jpg	 l	 1.640	 GoodTrial	 allStim	 ra
42	 7	 0	 x	 LineStimuli//allStim/stimNo127r0c0v1.5.jpg	 r	 2.201	 GoodTrial	 allStim	 ra
43	 7	 0	 x	 LineStimuli//allStim/stimNo154r0c0v3.3.jpg	 r	 1.939	 GoodTrial	 allStim	 ra
44	 7	 1	 left	 LineStimuli//allStim/stimNo91r2c3v2.8.jpg	 l	 1.563	 GoodTrial	 allStim	 ra
45	 7	 1	 left	 LineStimuli//allStim/stimNo116r4c7v2.8.jpg	 l	 1.597	 GoodTrial	 allStim	 ra
46	 7	 1	 left	 LineStimuli//allStim/stimNo89r8c9v1.5.jpg	 r	 3.660	 GoodTrial	 allStim	 ra
47	 7	 0	 x	 LineStimuli//allStim/stimNo160r0c0v2.8.jpg	 r	 2.575	 GoodTrial	 allStim	 ra
48	 7	 0	 x	 LineStimuli//allStim/stimNo137r0c0v1.5.jpg	 r	 2.613	 GoodTrial	 allStim	 ra
49	 7	 0	 x	 LineStimuli//allStim/stimNo136r0c0v3.8.jpg	 r	 1.881	 GoodTrial	 allStim	 ra
50	 7	 0	 x	 LineStimuli//allStim/stimNo152r0c0v3.8.jpg	 r	 3.084	 GoodTrial	 allStim	 ra
