Trial	Block	Target_pr	Target_side	Name	Key	RT	Message	Block_Type	Condition
1	 1	 1	 right	 LineStimuli//allStim/stimNo119r6c19v1.5.jpg	 l	 32.617	 GoodTrial	 allStim	 ra
2	 1	 0	 x	 LineStimuli//allStim/stimNo138r0c0v2.3.jpg	 r	 33.731	 GoodTrial	 allStim	 ra
3	 1	 0	 x	 LineStimuli//allStim/stimNo145r0c0v2.3.jpg	 r	 32.773	 GoodTrial	 allStim	 ra
4	 1	 1	 left	 LineStimuli//allStim/stimNo98r2c9v3.8.jpg	 r	 16.117	 GoodTrial	 allStim	 ra
5	 1	 1	 left	 LineStimuli//allStim/stimNo115r5c9v1.8.jpg	 l	 51.211	 GoodTrial	 allStim	 ra
6	 1	 1	 left	 LineStimuli//allStim/stimNo81r15c8v3.3.jpg	 l	 3.442	 GoodTrial	 allStim	 ra
7	 1	 1	 right	 LineStimuli//allStim/stimNo90r15c13v1.8.jpg	 l	 2.680	 GoodTrial	 allStim	 ra
8	 1	 0	 x	 LineStimuli//allStim/stimNo126r0c0v2.3.jpg	 r	 37.764	 GoodTrial	 allStim	 ra
9	 1	 0	 x	 LineStimuli//allStim/stimNo160r0c0v2.8.jpg	 r	 29.365	 GoodTrial	 allStim	 ra
10	 1	 1	 left	 LineStimuli//allStim/stimNo104r8c6v2.8.jpg	 l	 3.683	 GoodTrial	 allStim	 ra
11	 1	 1	 right	 LineStimuli//allStim/stimNo101r12c17v3.8.jpg	 l	 2.083	 GoodTrial	 allStim	 ra
12	 1	 0	 x	 LineStimuli//allStim/stimNo136r0c0v3.8.jpg	 r	 20.574	 GoodTrial	 allStim	 ra
13	 1	 0	 x	 LineStimuli//allStim/stimNo123r0c0v1.5.jpg	 r	 48.304	 GoodTrial	 allStim	 ra
14	 1	 0	 x	 LineStimuli//allStim/stimNo156r0c0v2.8.jpg	 r	 43.801	 GoodTrial	 allStim	 ra
15	 1	 0	 x	 LineStimuli//allStim/stimNo130r0c0v3.3.jpg	 r	 18.200	 GoodTrial	 allStim	 ra
16	 1	 1	 left	 LineStimuli//allStim/stimNo96r15c4v1.5.jpg	 l	 15.172	 GoodTrial	 allStim	 ra
17	 1	 1	 right	 LineStimuli//allStim/stimNo117r10c16v1.8.jpg	 l	 2.044	 GoodTrial	 allStim	 ra
18	 1	 1	 right	 LineStimuli//allStim/stimNo91r11c20v2.3.jpg	 l	 1.881	 GoodTrial	 allStim	 ra
19	 1	 1	 left	 LineStimuli//allStim/stimNo91r2c3v2.8.jpg	 l	 2.487	 GoodTrial	 allStim	 ra
20	 1	 1	 right	 LineStimuli//allStim/stimNo103r13c17v1.5.jpg	 l	 7.899	 GoodTrial	 allStim	 ra
21	 1	 0	 x	 LineStimuli//allStim/stimNo130r0c0v2.3.jpg	 r	 22.485	 GoodTrial	 allStim	 ra
22	 1	 1	 right	 LineStimuli//allStim/stimNo82r11c15v1.5.jpg	 l	 1.991	 GoodTrial	 allStim	 ra
23	 1	 0	 x	 LineStimuli//allStim/stimNo125r0c0v4.3.jpg	 r	 11.948	 GoodTrial	 allStim	 ra
24	 1	 1	 left	 LineStimuli//allStim/stimNo117r2c5v3.3.jpg	 l	 2.122	 GoodTrial	 allStim	 ra
25	 1	 0	 x	 LineStimuli//allStim/stimNo134r0c0v3.8.jpg	 r	 14.057	 GoodTrial	 allStim	 ra
26	 1	 0	 x	 LineStimuli//allStim/stimNo132r0c0v4.3.jpg	 r	 15.821	 GoodTrial	 allStim	 ra
27	 1	 0	 x	 LineStimuli//allStim/stimNo130r0c0v4.3.jpg	 r	 13.987	 GoodTrial	 allStim	 ra
28	 1	 1	 right	 LineStimuli//allStim/stimNo118r9c20v1.5.jpg	 l	 25.655	 GoodTrial	 allStim	 ra
29	 1	 0	 x	 LineStimuli//allStim/stimNo145r0c0v1.8.jpg	 r	 38.512	 GoodTrial	 allStim	 ra
30	 1	 0	 x	 LineStimuli//allStim/stimNo151r0c0v3.8.jpg	 r	 15.006	 GoodTrial	 allStim	 ra
31	 1	 0	 x	 LineStimuli//allStim/stimNo160r0c0v4.3.jpg	 r	 15.054	 GoodTrial	 allStim	 ra
32	 1	 1	 right	 LineStimuli//allStim/stimNo101r12c16v2.8.jpg	 l	 1.936	 GoodTrial	 allStim	 ra
33	 1	 0	 x	 LineStimuli//allStim/stimNo131r0c0v1.8.jpg	 r	 22.320	 GoodTrial	 allStim	 ra
34	 1	 1	 left	 LineStimuli//allStim/stimNo85r3c5v4.3.jpg	 l	 1.729	 GoodTrial	 allStim	 ra
35	 1	 1	 right	 LineStimuli//allStim/stimNo85r4c15v2.8.jpg	 l	 1.858	 GoodTrial	 allStim	 ra
36	 1	 0	 x	 LineStimuli//allStim/stimNo141r0c0v1.8.jpg	 r	 20.765	 GoodTrial	 allStim	 ra
37	 1	 0	 x	 LineStimuli//allStim/stimNo153r0c0v2.3.jpg	 r	 11.516	 GoodTrial	 allStim	 ra
38	 1	 0	 x	 LineStimuli//allStim/stimNo122r0c0v3.3.jpg	 r	 9.416	 GoodTrial	 allStim	 ra
39	 1	 0	 x	 LineStimuli//allStim/stimNo150r0c0v3.3.jpg	 r	 9.110	 GoodTrial	 allStim	 ra
40	 1	 0	 x	 LineStimuli//allStim/stimNo158r0c0v2.8.jpg	 r	 11.724	 GoodTrial	 allStim	 ra
41	 1	 0	 x	 LineStimuli//allStim/stimNo135r0c0v1.5.jpg	 r	 28.938	 GoodTrial	 allStim	 ra
42	 1	 1	 left	 LineStimuli//allStim/stimNo113r6c7v1.8.jpg	 l	 2.373	 GoodTrial	 allStim	 ra
43	 1	 0	 x	 LineStimuli//allStim/stimNo130r0c0v1.8.jpg	 r	 13.772	 GoodTrial	 allStim	 ra
44	 1	 1	 left	 LineStimuli//allStim/stimNo108r5c8v4.3.jpg	 l	 1.768	 GoodTrial	 allStim	 ra
45	 1	 1	 right	 LineStimuli//allStim/stimNo81r8c14v2.8.jpg	 l	 1.672	 GoodTrial	 allStim	 ra
46	 1	 0	 x	 LineStimuli//allStim/stimNo123r0c0v2.3.jpg	 r	 11.603	 GoodTrial	 allStim	 ra
47	 1	 1	 right	 LineStimuli//allStim/stimNo111r15c20v3.8.jpg	 l	 1.730	 GoodTrial	 allStim	 ra
48	 1	 1	 left	 LineStimuli//allStim/stimNo86r14c4v1.8.jpg	 l	 3.035	 GoodTrial	 allStim	 ra
49	 1	 0	 x	 LineStimuli//allStim/stimNo125r0c0v1.8.jpg	 r	 20.243	 GoodTrial	 allStim	 ra
50	 1	 0	 x	 LineStimuli//allStim/stimNo151r0c0v4.3.jpg	 r	 7.870	 GoodTrial	 allStim	 ra
1	 2	 0	 x	 LineStimuli//allStim/stimNo122r0c0v1.8.jpg	 x	 0.408	 EARLY_RESPONSE	 allStim	 ra
2	 2	 0	 x	 LineStimuli//allStim/stimNo150r0c0v2.8.jpg	 r	 15.544	 GoodTrial	 allStim	 ra
3	 2	 0	 x	 LineStimuli//allStim/stimNo122r0c0v4.3.jpg	 r	 9.042	 GoodTrial	 allStim	 ra
4	 2	 1	 left	 LineStimuli//allStim/stimNo99r10c3v1.5.jpg	 r	 20.840	 GoodTrial	 allStim	 ra
5	 2	 0	 x	 LineStimuli//allStim/stimNo126r0c0v2.8.jpg	 r	 17.893	 GoodTrial	 allStim	 ra
6	 2	 1	 right	 LineStimuli//allStim/stimNo100r9c13v1.8.jpg	 l	 1.848	 GoodTrial	 allStim	 ra
7	 2	 0	 x	 LineStimuli//allStim/stimNo157r0c0v3.8.jpg	 r	 7.297	 GoodTrial	 allStim	 ra
8	 2	 1	 left	 LineStimuli//allStim/stimNo107r5c4v1.8.jpg	 l	 1.936	 GoodTrial	 allStim	 ra
9	 2	 1	 right	 LineStimuli//allStim/stimNo104r5c18v1.5.jpg	 l	 3.669	 GoodTrial	 allStim	 ra
10	 2	 1	 left	 LineStimuli//allStim/stimNo100r8c6v2.3.jpg	 l	 1.855	 GoodTrial	 allStim	 ra
11	 2	 1	 right	 LineStimuli//allStim/stimNo115r10c18v4.3.jpg	 l	 1.626	 GoodTrial	 allStim	 ra
12	 2	 1	 left	 LineStimuli//allStim/stimNo103r10c4v4.3.jpg	 l	 1.705	 GoodTrial	 allStim	 ra
13	 2	 1	 left	 LineStimuli//allStim/stimNo93r9c9v4.3.jpg	 l	 1.647	 GoodTrial	 allStim	 ra
14	 2	 1	 left	 LineStimuli//allStim/stimNo105r5c4v2.8.jpg	 l	 1.752	 GoodTrial	 allStim	 ra
15	 2	 0	 x	 LineStimuli//allStim/stimNo122r0c0v1.5.jpg	 r	 17.142	 GoodTrial	 allStim	 ra
16	 2	 1	 left	 LineStimuli//allStim/stimNo117r2c5v3.3.jpg	 l	 1.760	 GoodTrial	 allStim	 ra
17	 2	 1	 left	 LineStimuli//allStim/stimNo105r6c5v1.8.jpg	 l	 1.800	 GoodTrial	 allStim	 ra
18	 2	 0	 x	 LineStimuli//allStim/stimNo154r0c0v3.3.jpg	 r	 6.310	 GoodTrial	 allStim	 ra
19	 2	 1	 right	 LineStimuli//allStim/stimNo106r13c20v2.8.jpg	 l	 1.738	 GoodTrial	 allStim	 ra
20	 2	 0	 x	 LineStimuli//allStim/stimNo137r0c0v2.3.jpg	 r	 11.736	 GoodTrial	 allStim	 ra
21	 2	 0	 x	 LineStimuli//allStim/stimNo123r0c0v1.8.jpg	 r	 13.020	 GoodTrial	 allStim	 ra
22	 2	 1	 left	 LineStimuli//allStim/stimNo108r13c6v2.8.jpg	 l	 2.182	 GoodTrial	 allStim	 ra
23	 2	 1	 left	 LineStimuli//allStim/stimNo86r15c6v2.8.jpg	 l	 1.866	 GoodTrial	 allStim	 ra
24	 2	 1	 right	 LineStimuli//allStim/stimNo111r7c17v1.5.jpg	 l	 1.944	 GoodTrial	 allStim	 ra
25	 2	 1	 left	 LineStimuli//allStim/stimNo84r3c9v2.8.jpg	 l	 1.788	 GoodTrial	 allStim	 ra
26	 2	 0	 x	 LineStimuli//allStim/stimNo153r0c0v1.8.jpg	 r	 19.129	 GoodTrial	 allStim	 ra
27	 2	 1	 right	 LineStimuli//allStim/stimNo99r2c13v3.8.jpg	 l	 1.974	 GoodTrial	 allStim	 ra
28	 2	 0	 x	 LineStimuli//allStim/stimNo155r0c0v2.8.jpg	 r	 10.592	 GoodTrial	 allStim	 ra
29	 2	 1	 left	 LineStimuli//allStim/stimNo88r6c7v1.5.jpg	 l	 1.922	 GoodTrial	 allStim	 ra
30	 2	 0	 x	 LineStimuli//allStim/stimNo145r0c0v2.3.jpg	 r	 14.475	 GoodTrial	 allStim	 ra
31	 2	 1	 right	 LineStimuli//allStim/stimNo88r10c17v3.8.jpg	 l	 1.735	 GoodTrial	 allStim	 ra
32	 2	 0	 x	 LineStimuli//allStim/stimNo132r0c0v3.3.jpg	 r	 10.466	 GoodTrial	 allStim	 ra
33	 2	 0	 x	 LineStimuli//allStim/stimNo145r0c0v4.3.jpg	 r	 12.200	 GoodTrial	 allStim	 ra
34	 2	 1	 right	 LineStimuli//allStim/stimNo91r12c16v3.3.jpg	 l	 1.764	 GoodTrial	 allStim	 ra
35	 2	 1	 left	 LineStimuli//allStim/stimNo87r12c5v1.5.jpg	 l	 2.647	 GoodTrial	 allStim	 ra
36	 2	 1	 left	 LineStimuli//allStim/stimNo94r14c9v3.3.jpg	 l	 1.756	 GoodTrial	 allStim	 ra
37	 2	 1	 right	 LineStimuli//allStim/stimNo95r6c14v1.5.jpg	 l	 2.879	 GoodTrial	 allStim	 ra
38	 2	 1	 left	 LineStimuli//allStim/stimNo82r12c4v2.3.jpg	 l	 2.195	 GoodTrial	 allStim	 ra
39	 2	 1	 left	 LineStimuli//allStim/stimNo118r4c8v3.8.jpg	 l	 1.751	 GoodTrial	 allStim	 ra
40	 2	 1	 left	 LineStimuli//allStim/stimNo83r12c4v2.8.jpg	 l	 1.863	 GoodTrial	 allStim	 ra
41	 2	 0	 x	 LineStimuli//allStim/stimNo143r0c0v3.8.jpg	 r	 8.000	 GoodTrial	 allStim	 ra
42	 2	 0	 x	 LineStimuli//allStim/stimNo121r0c0v2.3.jpg	 r	 9.200	 GoodTrial	 allStim	 ra
43	 2	 1	 right	 LineStimuli//allStim/stimNo89r3c17v4.3.jpg	 l	 1.855	 GoodTrial	 allStim	 ra
44	 2	 0	 x	 LineStimuli//allStim/stimNo153r0c0v1.5.jpg	 r	 19.560	 GoodTrial	 allStim	 ra
45	 2	 0	 x	 LineStimuli//allStim/stimNo126r0c0v4.3.jpg	 r	 4.910	 GoodTrial	 allStim	 ra
46	 2	 0	 x	 LineStimuli//allStim/stimNo155r0c0v3.8.jpg	 r	 3.716	 GoodTrial	 allStim	 ra
47	 2	 0	 x	 LineStimuli//allStim/stimNo129r0c0v2.3.jpg	 r	 5.215	 GoodTrial	 allStim	 ra
48	 2	 1	 right	 LineStimuli//allStim/stimNo84r3c18v1.5.jpg	 l	 10.286	 GoodTrial	 allStim	 ra
49	 2	 0	 x	 LineStimuli//allStim/stimNo126r0c0v2.3.jpg	 r	 12.075	 GoodTrial	 allStim	 ra
50	 2	 0	 x	 LineStimuli//allStim/stimNo132r0c0v2.3.jpg	 r	 13.664	 GoodTrial	 allStim	 ra
1	 3	 0	 x	 LineStimuli//allStim/stimNo138r0c0v1.8.jpg	 x	 0.160	 EARLY_RESPONSE	 allStim	 ra
2	 3	 1	 right	 LineStimuli//allStim/stimNo82r7c18v4.3.jpg	 r	 0.192	 EARLY_RESPONSE	 allStim	 ra
3	 3	 1	 right	 LineStimuli//allStim/stimNo100r9c13v1.8.jpg	 l	 2.690	 GoodTrial	 allStim	 ra
4	 3	 1	 right	 LineStimuli//allStim/stimNo105r7c20v3.3.jpg	 l	 2.117	 GoodTrial	 allStim	 ra
5	 3	 1	 right	 LineStimuli//allStim/stimNo82r11c20v3.3.jpg	 l	 1.896	 GoodTrial	 allStim	 ra
6	 3	 0	 x	 LineStimuli//allStim/stimNo154r0c0v3.8.jpg	 r	 5.496	 GoodTrial	 allStim	 ra
7	 3	 1	 right	 LineStimuli//allStim/stimNo112r12c16v3.8.jpg	 l	 1.736	 GoodTrial	 allStim	 ra
8	 3	 1	 left	 LineStimuli//allStim/stimNo89r8c9v1.5.jpg	 l	 3.038	 GoodTrial	 allStim	 ra
9	 3	 0	 x	 LineStimuli//allStim/stimNo138r0c0v2.3.jpg	 r	 7.243	 GoodTrial	 allStim	 ra
10	 3	 0	 x	 LineStimuli//allStim/stimNo146r0c0v3.3.jpg	 r	 7.687	 GoodTrial	 allStim	 ra
11	 3	 0	 x	 LineStimuli//allStim/stimNo155r0c0v2.3.jpg	 r	 10.072	 GoodTrial	 allStim	 ra
12	 3	 1	 right	 LineStimuli//allStim/stimNo99r14c18v4.3.jpg	 l	 1.682	 GoodTrial	 allStim	 ra
13	 3	 1	 left	 LineStimuli//allStim/stimNo113r9c5v2.8.jpg	 l	 1.703	 GoodTrial	 allStim	 ra
14	 3	 1	 right	 LineStimuli//allStim/stimNo107r2c17v3.3.jpg	 l	 1.629	 GoodTrial	 allStim	 ra
15	 3	 1	 right	 LineStimuli//allStim/stimNo106r13c20v2.8.jpg	 l	 1.615	 GoodTrial	 allStim	 ra
16	 3	 1	 left	 LineStimuli//allStim/stimNo91r2c3v2.8.jpg	 l	 1.936	 GoodTrial	 allStim	 ra
17	 3	 1	 right	 LineStimuli//allStim/stimNo117r10c21v4.3.jpg	 l	 1.935	 GoodTrial	 allStim	 ra
18	 3	 0	 x	 LineStimuli//allStim/stimNo146r0c0v4.3.jpg	 r	 7.194	 GoodTrial	 allStim	 ra
19	 3	 0	 x	 LineStimuli//allStim/stimNo143r0c0v4.3.jpg	 r	 7.717	 GoodTrial	 allStim	 ra
20	 3	 0	 x	 LineStimuli//allStim/stimNo149r0c0v3.3.jpg	 r	 7.209	 GoodTrial	 allStim	 ra
21	 3	 0	 x	 LineStimuli//allStim/stimNo145r0c0v3.3.jpg	 r	 7.785	 GoodTrial	 allStim	 ra
22	 3	 1	 right	 LineStimuli//allStim/stimNo99r12c16v1.8.jpg	 l	 2.402	 GoodTrial	 allStim	 ra
23	 3	 1	 left	 LineStimuli//allStim/stimNo105r5c4v2.8.jpg	 l	 1.594	 GoodTrial	 allStim	 ra
24	 3	 1	 left	 LineStimuli//allStim/stimNo94r13c7v2.8.jpg	 l	 1.643	 GoodTrial	 allStim	 ra
25	 3	 1	 left	 LineStimuli//allStim/stimNo108r5c8v4.3.jpg	 l	 1.602	 GoodTrial	 allStim	 ra
26	 3	 1	 left	 LineStimuli//allStim/stimNo113r11c7v4.3.jpg	 l	 1.643	 GoodTrial	 allStim	 ra
27	 3	 1	 right	 LineStimuli//allStim/stimNo88r10c17v3.8.jpg	 l	 1.562	 GoodTrial	 allStim	 ra
28	 3	 1	 right	 LineStimuli//allStim/stimNo120r8c14v3.3.jpg	 l	 1.633	 GoodTrial	 allStim	 ra
29	 3	 0	 x	 LineStimuli//allStim/stimNo133r0c0v1.8.jpg	 r	 15.025	 GoodTrial	 allStim	 ra
30	 3	 1	 left	 LineStimuli//allStim/stimNo88r15c2v2.3.jpg	 l	 2.254	 GoodTrial	 allStim	 ra
31	 3	 1	 left	 LineStimuli//allStim/stimNo102r3c2v2.8.jpg	 l	 1.058	 GoodTrial	 allStim	 ra
32	 3	 1	 right	 LineStimuli//allStim/stimNo111r4c21v1.8.jpg	 l	 2.149	 GoodTrial	 allStim	 ra
33	 3	 1	 right	 LineStimuli//allStim/stimNo98r8c21v1.5.jpg	 l	 1.981	 GoodTrial	 allStim	 ra
34	 3	 1	 right	 LineStimuli//allStim/stimNo92r10c18v1.8.jpg	 l	 2.032	 GoodTrial	 allStim	 ra
35	 3	 1	 right	 LineStimuli//allStim/stimNo118r3c16v3.3.jpg	 l	 1.813	 GoodTrial	 allStim	 ra
36	 3	 1	 left	 LineStimuli//allStim/stimNo83r12c4v2.8.jpg	 l	 1.915	 GoodTrial	 allStim	 ra
37	 3	 1	 right	 LineStimuli//allStim/stimNo101r8c14v2.3.jpg	 l	 1.681	 GoodTrial	 allStim	 ra
38	 3	 1	 right	 LineStimuli//allStim/stimNo117r6c17v3.8.jpg	 l	 1.579	 GoodTrial	 allStim	 ra
39	 3	 1	 right	 LineStimuli//allStim/stimNo114r11c21v3.3.jpg	 l	 1.639	 GoodTrial	 allStim	 ra
40	 3	 0	 x	 LineStimuli//allStim/stimNo142r0c0v3.3.jpg	 r	 9.146	 GoodTrial	 allStim	 ra
41	 3	 0	 x	 LineStimuli//allStim/stimNo151r0c0v1.5.jpg	 r	 13.105	 GoodTrial	 allStim	 ra
42	 3	 1	 right	 LineStimuli//allStim/stimNo112r13c17v2.8.jpg	 l	 1.672	 GoodTrial	 allStim	 ra
43	 3	 0	 x	 LineStimuli//allStim/stimNo138r0c0v2.8.jpg	 r	 5.799	 GoodTrial	 allStim	 ra
44	 3	 0	 x	 LineStimuli//allStim/stimNo130r0c0v2.8.jpg	 r	 5.392	 GoodTrial	 allStim	 ra
45	 3	 0	 x	 LineStimuli//allStim/stimNo131r0c0v1.5.jpg	 r	 10.220	 GoodTrial	 allStim	 ra
46	 3	 1	 right	 LineStimuli//allStim/stimNo114r8c19v2.8.jpg	 l	 1.744	 GoodTrial	 allStim	 ra
47	 3	 0	 x	 LineStimuli//allStim/stimNo156r0c0v3.8.jpg	 r	 4.851	 GoodTrial	 allStim	 ra
48	 3	 1	 left	 LineStimuli//allStim/stimNo85r6c4v3.3.jpg	 l	 1.840	 GoodTrial	 allStim	 ra
49	 3	 1	 right	 LineStimuli//allStim/stimNo88r9c14v3.3.jpg	 l	 1.589	 GoodTrial	 allStim	 ra
50	 3	 0	 x	 LineStimuli//allStim/stimNo145r0c0v1.5.jpg	 r	 14.265	 GoodTrial	 allStim	 ra
1	 4	 0	 x	 LineStimuli//allStim/stimNo128r0c0v1.5.jpg	 r	 16.484	 GoodTrial	 allStim	 ra
2	 4	 1	 left	 LineStimuli//allStim/stimNo97r15c6v1.5.jpg	 r	 10.683	 GoodTrial	 allStim	 ra
3	 4	 1	 left	 LineStimuli//allStim/stimNo113r3c8v2.3.jpg	 l	 1.718	 GoodTrial	 allStim	 ra
4	 4	 0	 x	 LineStimuli//allStim/stimNo125r0c0v2.3.jpg	 r	 20.759	 GoodTrial	 allStim	 ra
5	 4	 0	 x	 LineStimuli//allStim/stimNo145r0c0v1.5.jpg	 r	 24.646	 GoodTrial	 allStim	 ra
6	 4	 1	 right	 LineStimuli//allStim/stimNo98r4c21v3.3.jpg	 l	 1.699	 GoodTrial	 allStim	 ra
7	 4	 0	 x	 LineStimuli//allStim/stimNo127r0c0v2.3.jpg	 r	 15.301	 GoodTrial	 allStim	 ra
8	 4	 0	 x	 LineStimuli//allStim/stimNo142r0c0v3.3.jpg	 r	 9.904	 GoodTrial	 allStim	 ra
9	 4	 0	 x	 LineStimuli//allStim/stimNo157r0c0v3.3.jpg	 r	 10.041	 GoodTrial	 allStim	 ra
10	 4	 0	 x	 LineStimuli//allStim/stimNo121r0c0v3.3.jpg	 r	 7.990	 GoodTrial	 allStim	 ra
11	 4	 1	 right	 LineStimuli//allStim/stimNo105r3c18v1.5.jpg	 l	 2.161	 GoodTrial	 allStim	 ra
12	 4	 0	 x	 LineStimuli//allStim/stimNo139r0c0v3.8.jpg	 r	 19.334	 GoodTrial	 allStim	 ra
13	 4	 0	 x	 LineStimuli//allStim/stimNo153r0c0v1.8.jpg	 r	 25.758	 GoodTrial	 allStim	 ra
14	 4	 0	 x	 LineStimuli//allStim/stimNo129r0c0v1.5.jpg	 r	 11.452	 GoodTrial	 allStim	 ra
15	 4	 1	 left	 LineStimuli//allStim/stimNo97r3c3v2.3.jpg	 l	 1.898	 GoodTrial	 allStim	 ra
16	 4	 1	 left	 LineStimuli//allStim/stimNo100r13c6v3.8.jpg	 l	 1.775	 GoodTrial	 allStim	 ra
17	 4	 0	 x	 LineStimuli//allStim/stimNo124r0c0v3.3.jpg	 r	 8.838	 GoodTrial	 allStim	 ra
18	 4	 1	 right	 LineStimuli//allStim/stimNo82r11c20v3.3.jpg	 l	 1.648	 GoodTrial	 allStim	 ra
19	 4	 1	 left	 LineStimuli//allStim/stimNo93r8c2v3.8.jpg	 l	 1.706	 GoodTrial	 allStim	 ra
20	 4	 0	 x	 LineStimuli//allStim/stimNo121r0c0v3.8.jpg	 r	 7.943	 GoodTrial	 allStim	 ra
21	 4	 0	 x	 LineStimuli//allStim/stimNo148r0c0v3.8.jpg	 r	 6.620	 GoodTrial	 allStim	 ra
22	 4	 0	 x	 LineStimuli//allStim/stimNo157r0c0v1.5.jpg	 r	 21.010	 GoodTrial	 allStim	 ra
23	 4	 0	 x	 LineStimuli//allStim/stimNo136r0c0v1.8.jpg	 r	 12.768	 GoodTrial	 allStim	 ra
24	 4	 0	 x	 LineStimuli//allStim/stimNo124r0c0v1.5.jpg	 r	 21.507	 GoodTrial	 allStim	 ra
25	 4	 1	 left	 LineStimuli//allStim/stimNo108r5c8v4.3.jpg	 l	 1.719	 GoodTrial	 allStim	 ra
26	 4	 0	 x	 LineStimuli//allStim/stimNo132r0c0v3.8.jpg	 r	 7.503	 GoodTrial	 allStim	 ra
27	 4	 0	 x	 LineStimuli//allStim/stimNo155r0c0v2.3.jpg	 r	 18.752	 GoodTrial	 allStim	 ra
28	 4	 1	 left	 LineStimuli//allStim/stimNo88r15c3v2.8.jpg	 l	 2.007	 GoodTrial	 allStim	 ra
29	 4	 1	 left	 LineStimuli//allStim/stimNo81r4c3v2.3.jpg	 l	 1.671	 GoodTrial	 allStim	 ra
30	 4	 1	 right	 LineStimuli//allStim/stimNo81r3c21v3.8.jpg	 l	 1.663	 GoodTrial	 allStim	 ra
31	 4	 0	 x	 LineStimuli//allStim/stimNo159r0c0v3.8.jpg	 r	 8.273	 GoodTrial	 allStim	 ra
32	 4	 0	 x	 LineStimuli//allStim/stimNo155r0c0v3.8.jpg	 r	 10.010	 GoodTrial	 allStim	 ra
33	 4	 1	 right	 LineStimuli//allStim/stimNo98r8c21v1.5.jpg	 l	 1.977	 GoodTrial	 allStim	 ra
34	 4	 1	 left	 LineStimuli//allStim/stimNo90r10c4v4.3.jpg	 l	 1.556	 GoodTrial	 allStim	 ra
35	 4	 1	 right	 LineStimuli//allStim/stimNo99r6c17v3.3.jpg	 l	 1.535	 GoodTrial	 allStim	 ra
36	 4	 0	 x	 LineStimuli//allStim/stimNo150r0c0v3.3.jpg	 r	 7.570	 GoodTrial	 allStim	 ra
37	 4	 1	 right	 LineStimuli//allStim/stimNo84r3c18v1.5.jpg	 l	 8.416	 GoodTrial	 allStim	 ra
38	 4	 0	 x	 LineStimuli//allStim/stimNo160r0c0v4.3.jpg	 r	 3.443	 GoodTrial	 allStim	 ra
39	 4	 1	 left	 LineStimuli//allStim/stimNo89r10c7v3.8.jpg	 l	 1.749	 GoodTrial	 allStim	 ra
40	 4	 0	 x	 LineStimuli//allStim/stimNo140r0c0v1.8.jpg	 r	 11.913	 GoodTrial	 allStim	 ra
41	 4	 1	 left	 LineStimuli//allStim/stimNo100r8c6v2.3.jpg	 l	 1.835	 GoodTrial	 allStim	 ra
42	 4	 0	 x	 LineStimuli//allStim/stimNo154r0c0v1.8.jpg	 r	 10.168	 GoodTrial	 allStim	 ra
43	 4	 1	 right	 LineStimuli//allStim/stimNo97r6c21v4.3.jpg	 l	 1.859	 GoodTrial	 allStim	 ra
44	 4	 0	 x	 LineStimuli//allStim/stimNo153r0c0v2.8.jpg	 r	 5.223	 GoodTrial	 allStim	 ra
45	 4	 1	 right	 LineStimuli//allStim/stimNo112r10c16v4.3.jpg	 l	 1.515	 GoodTrial	 allStim	 ra
46	 4	 1	 left	 LineStimuli//allStim/stimNo110r4c3v3.3.jpg	 l	 1.768	 GoodTrial	 allStim	 ra
47	 4	 0	 x	 LineStimuli//allStim/stimNo153r0c0v4.3.jpg	 r	 4.240	 GoodTrial	 allStim	 ra
48	 4	 1	 left	 LineStimuli//allStim/stimNo89r12c4v2.8.jpg	 l	 1.688	 GoodTrial	 allStim	 ra
49	 4	 0	 x	 LineStimuli//allStim/stimNo147r0c0v4.3.jpg	 r	 6.989	 GoodTrial	 allStim	 ra
50	 4	 0	 x	 LineStimuli//allStim/stimNo129r0c0v3.3.jpg	 r	 7.930	 GoodTrial	 allStim	 ra
1	 5	 1	 right	 LineStimuli//allStim/stimNo96r4c19v4.3.jpg	 l	 2.491	 GoodTrial	 allStim	 ra
2	 5	 0	 x	 LineStimuli//allStim/stimNo157r0c0v3.8.jpg	 r	 5.093	 GoodTrial	 allStim	 ra
3	 5	 1	 right	 LineStimuli//allStim/stimNo103r3c19v2.8.jpg	 l	 1.687	 GoodTrial	 allStim	 ra
4	 5	 1	 left	 LineStimuli//allStim/stimNo102r7c6v1.5.jpg	 l	 5.553	 GoodTrial	 allStim	 ra
5	 5	 0	 x	 LineStimuli//allStim/stimNo142r0c0v3.3.jpg	 r	 4.117	 GoodTrial	 allStim	 ra
6	 5	 1	 right	 LineStimuli//allStim/stimNo82r11c20v3.3.jpg	 l	 1.720	 GoodTrial	 allStim	 ra
7	 5	 1	 right	 LineStimuli//allStim/stimNo101r5c20v1.5.jpg	 l	 2.331	 GoodTrial	 allStim	 ra
8	 5	 0	 x	 LineStimuli//allStim/stimNo131r0c0v2.8.jpg	 r	 10.546	 GoodTrial	 allStim	 ra
9	 5	 1	 right	 LineStimuli//allStim/stimNo114r10c15v4.3.jpg	 l	 1.660	 GoodTrial	 allStim	 ra
10	 5	 0	 x	 LineStimuli//allStim/stimNo128r0c0v1.5.jpg	 r	 24.637	 GoodTrial	 allStim	 ra
11	 5	 1	 left	 LineStimuli//allStim/stimNo103r11c7v3.8.jpg	 l	 1.782	 GoodTrial	 allStim	 ra
12	 5	 0	 x	 LineStimuli//allStim/stimNo158r0c0v3.8.jpg	 r	 7.759	 GoodTrial	 allStim	 ra
13	 5	 1	 right	 LineStimuli//allStim/stimNo105r7c20v3.3.jpg	 l	 1.613	 GoodTrial	 allStim	 ra
14	 5	 1	 left	 LineStimuli//allStim/stimNo107r5c4v1.8.jpg	 l	 1.730	 GoodTrial	 allStim	 ra
15	 5	 1	 left	 LineStimuli//allStim/stimNo116r7c3v3.8.jpg	 l	 1.565	 GoodTrial	 allStim	 ra
16	 5	 0	 x	 LineStimuli//allStim/stimNo138r0c0v3.8.jpg	 r	 5.858	 GoodTrial	 allStim	 ra
17	 5	 1	 right	 LineStimuli//allStim/stimNo101r7c16v3.3.jpg	 l	 1.660	 GoodTrial	 allStim	 ra
18	 5	 1	 left	 LineStimuli//allStim/stimNo91r2c3v2.8.jpg	 l	 1.524	 GoodTrial	 allStim	 ra
19	 5	 1	 right	 LineStimuli//allStim/stimNo112r5c15v3.3.jpg	 l	 1.556	 GoodTrial	 allStim	 ra
20	 5	 1	 left	 LineStimuli//allStim/stimNo94r13c8v1.8.jpg	 l	 1.969	 GoodTrial	 allStim	 ra
21	 5	 0	 x	 LineStimuli//allStim/stimNo152r0c0v1.5.jpg	 r	 14.211	 GoodTrial	 allStim	 ra
22	 5	 0	 x	 LineStimuli//allStim/stimNo127r0c0v3.8.jpg	 r	 4.365	 GoodTrial	 allStim	 ra
23	 5	 1	 right	 LineStimuli//allStim/stimNo114r10c14v3.8.jpg	 l	 1.526	 GoodTrial	 allStim	 ra
24	 5	 1	 right	 LineStimuli//allStim/stimNo117r10c21v4.3.jpg	 l	 1.586	 GoodTrial	 allStim	 ra
25	 5	 0	 x	 LineStimuli//allStim/stimNo134r0c0v2.3.jpg	 r	 7.897	 GoodTrial	 allStim	 ra
26	 5	 1	 left	 LineStimuli//allStim/stimNo88r15c9v1.8.jpg	 l	 1.834	 GoodTrial	 allStim	 ra
27	 5	 0	 x	 LineStimuli//allStim/stimNo124r0c0v1.8.jpg	 r	 9.189	 GoodTrial	 allStim	 ra
28	 5	 1	 left	 LineStimuli//allStim/stimNo120r14c2v1.5.jpg	 l	 2.114	 GoodTrial	 allStim	 ra
29	 5	 1	 left	 LineStimuli//allStim/stimNo93r8c2v3.8.jpg	 l	 1.582	 GoodTrial	 allStim	 ra
30	 5	 0	 x	 LineStimuli//allStim/stimNo132r0c0v1.8.jpg	 r	 10.020	 GoodTrial	 allStim	 ra
31	 5	 0	 x	 LineStimuli//allStim/stimNo141r0c0v1.8.jpg	 r	 4.873	 GoodTrial	 allStim	 ra
32	 5	 0	 x	 LineStimuli//allStim/stimNo140r0c0v4.3.jpg	 r	 2.826	 GoodTrial	 allStim	 ra
33	 5	 1	 right	 LineStimuli//allStim/stimNo93r3c17v1.8.jpg	 l	 1.791	 GoodTrial	 allStim	 ra
34	 5	 0	 x	 LineStimuli//allStim/stimNo140r0c0v3.3.jpg	 r	 2.921	 GoodTrial	 allStim	 ra
35	 5	 1	 left	 LineStimuli//allStim/stimNo85r13c2v1.8.jpg	 l	 1.762	 GoodTrial	 allStim	 ra
36	 5	 1	 right	 LineStimuli//allStim/stimNo111r4c21v1.8.jpg	 l	 1.741	 GoodTrial	 allStim	 ra
37	 5	 0	 x	 LineStimuli//allStim/stimNo140r0c0v1.5.jpg	 r	 16.134	 GoodTrial	 allStim	 ra
38	 5	 0	 x	 LineStimuli//allStim/stimNo159r0c0v2.3.jpg	 r	 5.769	 GoodTrial	 allStim	 ra
39	 5	 0	 x	 LineStimuli//allStim/stimNo138r0c0v2.8.jpg	 r	 4.358	 GoodTrial	 allStim	 ra
40	 5	 1	 left	 LineStimuli//allStim/stimNo107r5c6v2.8.jpg	 l	 1.664	 GoodTrial	 allStim	 ra
41	 5	 0	 x	 LineStimuli//allStim/stimNo155r0c0v1.8.jpg	 r	 10.939	 GoodTrial	 allStim	 ra
42	 5	 0	 x	 LineStimuli//allStim/stimNo154r0c0v2.3.jpg	 r	 5.273	 GoodTrial	 allStim	 ra
43	 5	 1	 left	 LineStimuli//allStim/stimNo104r15c2v4.3.jpg	 l	 1.972	 GoodTrial	 allStim	 ra
44	 5	 1	 left	 LineStimuli//allStim/stimNo100r13c6v3.8.jpg	 l	 1.674	 GoodTrial	 allStim	 ra
45	 5	 0	 x	 LineStimuli//allStim/stimNo144r0c0v1.8.jpg	 r	 7.498	 GoodTrial	 allStim	 ra
46	 5	 0	 x	 LineStimuli//allStim/stimNo145r0c0v3.3.jpg	 r	 4.996	 GoodTrial	 allStim	 ra
47	 5	 0	 x	 LineStimuli//allStim/stimNo122r0c0v4.3.jpg	 r	 4.694	 GoodTrial	 allStim	 ra
48	 5	 0	 x	 LineStimuli//allStim/stimNo124r0c0v2.8.jpg	 r	 6.160	 GoodTrial	 allStim	 ra
49	 5	 0	 x	 LineStimuli//allStim/stimNo151r0c0v1.5.jpg	 r	 13.660	 GoodTrial	 allStim	 ra
50	 5	 0	 x	 LineStimuli//allStim/stimNo138r0c0v1.5.jpg	 r	 10.171	 GoodTrial	 allStim	 ra
1	 6	 0	 x	 LineStimuli//allStim/stimNo148r0c0v1.5.jpg	 l	 0.080	 EARLY_RESPONSE	 allStim	 ra
2	 6	 1	 left	 LineStimuli//allStim/stimNo119r9c8v3.8.jpg	 l	 0.840	 EARLY_RESPONSE	 allStim	 ra
3	 6	 0	 x	 LineStimuli//allStim/stimNo140r0c0v2.8.jpg	 l	 0.448	 EARLY_RESPONSE	 allStim	 ra
4	 6	 0	 x	 LineStimuli//allStim/stimNo153r0c0v3.8.jpg	 r	 1.000	 EARLY_RESPONSE	 allStim	 ra
5	 6	 1	 right	 LineStimuli//allStim/stimNo82r7c18v4.3.jpg	 r	 0.840	 EARLY_RESPONSE	 allStim	 ra
6	 6	 0	 x	 LineStimuli//allStim/stimNo150r0c0v2.3.jpg	 x	 0.384	 EARLY_RESPONSE	 allStim	 ra
7	 6	 1	 left	 LineStimuli//allStim/stimNo113r9c5v2.8.jpg	 l	 0.319	 EARLY_RESPONSE	 allStim	 ra
8	 6	 0	 x	 LineStimuli//allStim/stimNo140r0c0v3.3.jpg	 r	 0.112	 EARLY_RESPONSE	 allStim	 ra
9	 6	 1	 right	 LineStimuli//allStim/stimNo118r3c16v3.3.jpg	 l	 0.144	 EARLY_RESPONSE	 allStim	 ra
10	 6	 0	 x	 LineStimuli//allStim/stimNo148r0c0v2.8.jpg	 l	 0.112	 EARLY_RESPONSE	 allStim	 ra
11	 6	 1	 left	 LineStimuli//allStim/stimNo85r3c5v4.3.jpg	 r	 0.128	 EARLY_RESPONSE	 allStim	 ra
12	 6	 1	 left	 LineStimuli//allStim/stimNo88r15c3v2.8.jpg	 x	 0.984	 EARLY_RESPONSE	 allStim	 ra
13	 6	 1	 left	 LineStimuli//allStim/stimNo86r8c9v2.3.jpg	 x	 0.497	 EARLY_RESPONSE	 allStim	 ra
14	 6	 0	 x	 LineStimuli//allStim/stimNo137r0c0v3.3.jpg	 r	 26.456	 GoodTrial	 allStim	 ra
15	 6	 1	 right	 LineStimuli//allStim/stimNo92r14c21v2.8.jpg	 l	 1.896	 GoodTrial	 allStim	 ra
16	 6	 1	 left	 LineStimuli//allStim/stimNo81r15c8v3.3.jpg	 l	 1.854	 GoodTrial	 allStim	 ra
17	 6	 1	 right	 LineStimuli//allStim/stimNo96r8c18v3.3.jpg	 l	 1.657	 GoodTrial	 allStim	 ra
18	 6	 1	 left	 LineStimuli//allStim/stimNo95r15c8v3.3.jpg	 l	 1.767	 GoodTrial	 allStim	 ra
19	 6	 0	 x	 LineStimuli//allStim/stimNo125r0c0v1.8.jpg	 r	 15.845	 GoodTrial	 allStim	 ra
20	 6	 0	 x	 LineStimuli//allStim/stimNo148r0c0v3.8.jpg	 r	 2.926	 GoodTrial	 allStim	 ra
21	 6	 0	 x	 LineStimuli//allStim/stimNo137r0c0v1.8.jpg	 r	 11.676	 GoodTrial	 allStim	 ra
22	 6	 1	 right	 LineStimuli//allStim/stimNo110r7c14v2.8.jpg	 l	 1.671	 GoodTrial	 allStim	 ra
23	 6	 1	 left	 LineStimuli//allStim/stimNo107r5c4v1.8.jpg	 l	 1.711	 GoodTrial	 allStim	 ra
24	 6	 0	 x	 LineStimuli//allStim/stimNo136r0c0v3.8.jpg	 r	 4.793	 GoodTrial	 allStim	 ra
25	 6	 1	 left	 LineStimuli//allStim/stimNo86r7c7v3.8.jpg	 l	 1.691	 GoodTrial	 allStim	 ra
26	 6	 1	 right	 LineStimuli//allStim/stimNo99r12c16v1.8.jpg	 l	 1.782	 GoodTrial	 allStim	 ra
27	 6	 0	 x	 LineStimuli//allStim/stimNo136r0c0v2.8.jpg	 r	 3.671	 GoodTrial	 allStim	 ra
28	 6	 0	 x	 LineStimuli//allStim/stimNo156r0c0v3.3.jpg	 r	 2.487	 GoodTrial	 allStim	 ra
29	 6	 0	 x	 LineStimuli//allStim/stimNo146r0c0v4.3.jpg	 r	 2.237	 GoodTrial	 allStim	 ra
30	 6	 0	 x	 LineStimuli//allStim/stimNo145r0c0v2.3.jpg	 r	 4.431	 GoodTrial	 allStim	 ra
31	 6	 0	 x	 LineStimuli//allStim/stimNo155r0c0v2.3.jpg	 r	 3.565	 GoodTrial	 allStim	 ra
32	 6	 0	 x	 LineStimuli//allStim/stimNo125r0c0v4.3.jpg	 r	 2.269	 GoodTrial	 allStim	 ra
33	 6	 1	 left	 LineStimuli//allStim/stimNo104r8c6v2.8.jpg	 l	 1.552	 GoodTrial	 allStim	 ra
34	 6	 1	 left	 LineStimuli//allStim/stimNo110r4c3v3.3.jpg	 l	 1.511	 GoodTrial	 allStim	 ra
35	 6	 1	 right	 LineStimuli//allStim/stimNo90r13c21v2.8.jpg	 l	 1.710	 GoodTrial	 allStim	 ra
36	 6	 1	 left	 LineStimuli//allStim/stimNo98r15c2v2.8.jpg	 l	 1.689	 GoodTrial	 allStim	 ra
37	 6	 0	 x	 LineStimuli//allStim/stimNo155r0c0v1.8.jpg	 r	 6.329	 GoodTrial	 allStim	 ra
38	 6	 1	 right	 LineStimuli//allStim/stimNo89r3c17v4.3.jpg	 l	 1.581	 GoodTrial	 allStim	 ra
39	 6	 1	 right	 LineStimuli//allStim/stimNo101r12c17v3.8.jpg	 l	 1.632	 GoodTrial	 allStim	 ra
40	 6	 0	 x	 LineStimuli//allStim/stimNo151r0c0v1.8.jpg	 r	 6.624	 GoodTrial	 allStim	 ra
41	 6	 1	 left	 LineStimuli//allStim/stimNo105r14c6v4.3.jpg	 l	 1.583	 GoodTrial	 allStim	 ra
42	 6	 0	 x	 LineStimuli//allStim/stimNo155r0c0v1.5.jpg	 r	 6.695	 GoodTrial	 allStim	 ra
43	 6	 0	 x	 LineStimuli//allStim/stimNo140r0c0v4.3.jpg	 r	 2.014	 GoodTrial	 allStim	 ra
44	 6	 1	 left	 LineStimuli//allStim/stimNo94r10c6v1.5.jpg	 l	 2.600	 GoodTrial	 allStim	 ra
45	 6	 0	 x	 LineStimuli//allStim/stimNo138r0c0v4.3.jpg	 r	 2.020	 GoodTrial	 allStim	 ra
46	 6	 0	 x	 LineStimuli//allStim/stimNo160r0c0v3.8.jpg	 r	 2.719	 GoodTrial	 allStim	 ra
47	 6	 0	 x	 LineStimuli//allStim/stimNo151r0c0v3.8.jpg	 r	 2.244	 GoodTrial	 allStim	 ra
48	 6	 1	 left	 LineStimuli//allStim/stimNo86r15c6v2.8.jpg	 l	 1.620	 GoodTrial	 allStim	 ra
49	 6	 0	 x	 LineStimuli//allStim/stimNo124r0c0v4.3.jpg	 r	 1.900	 GoodTrial	 allStim	 ra
50	 6	 0	 x	 LineStimuli//allStim/stimNo134r0c0v3.8.jpg	 r	 2.191	 GoodTrial	 allStim	 ra
1	 7	 1	 right	 LineStimuli//allStim/stimNo91r11c20v2.3.jpg	 l	 0.640	 EARLY_RESPONSE	 allStim	 ra
2	 7	 1	 left	 LineStimuli//allStim/stimNo96r3c3v2.3.jpg	 l	 0.304	 EARLY_RESPONSE	 allStim	 ra
3	 7	 1	 right	 LineStimuli//allStim/stimNo114r8c19v2.8.jpg	 x	 0.232	 EARLY_RESPONSE	 allStim	 ra
4	 7	 1	 right	 LineStimuli//allStim/stimNo113r13c15v3.3.jpg	 x	 0.112	 EARLY_RESPONSE	 allStim	 ra
5	 7	 0	 x	 LineStimuli//allStim/stimNo123r0c0v2.8.jpg	 x	 0.920	 EARLY_RESPONSE	 allStim	 ra
6	 7	 0	 x	 LineStimuli//allStim/stimNo156r0c0v4.3.jpg	 r	 0.232	 EARLY_RESPONSE	 allStim	 ra
7	 7	 1	 left	 LineStimuli//allStim/stimNo111r10c9v4.3.jpg	 l	 0.080	 EARLY_RESPONSE	 allStim	 ra
8	 7	 1	 left	 LineStimuli//allStim/stimNo103r11c7v3.8.jpg	 l	 0.088	 EARLY_RESPONSE	 allStim	 ra
9	 7	 1	 right	 LineStimuli//allStim/stimNo103r13c17v1.5.jpg	 x	 0.208	 EARLY_RESPONSE	 allStim	 ra
10	 7	 0	 x	 LineStimuli//allStim/stimNo127r0c0v2.8.jpg	 x	 0.096	 EARLY_RESPONSE	 allStim	 ra
11	 7	 0	 x	 LineStimuli//allStim/stimNo137r0c0v2.3.jpg	 r	 6.008	 GoodTrial	 allStim	 ra
12	 7	 1	 left	 LineStimuli//allStim/stimNo87r12c5v1.5.jpg	 l	 2.261	 GoodTrial	 allStim	 ra
13	 7	 0	 x	 LineStimuli//allStim/stimNo158r0c0v4.3.jpg	 r	 2.893	 GoodTrial	 allStim	 ra
14	 7	 0	 x	 LineStimuli//allStim/stimNo132r0c0v2.3.jpg	 r	 2.273	 GoodTrial	 allStim	 ra
15	 7	 0	 x	 LineStimuli//allStim/stimNo157r0c0v3.3.jpg	 r	 2.358	 GoodTrial	 allStim	 ra
16	 7	 0	 x	 LineStimuli//allStim/stimNo138r0c0v1.8.jpg	 r	 2.730	 GoodTrial	 allStim	 ra
17	 7	 1	 right	 LineStimuli//allStim/stimNo117r11c17v2.8.jpg	 l	 1.672	 GoodTrial	 allStim	 ra
18	 7	 0	 x	 LineStimuli//allStim/stimNo128r0c0v2.8.jpg	 r	 2.482	 GoodTrial	 allStim	 ra
19	 7	 0	 x	 LineStimuli//allStim/stimNo152r0c0v4.3.jpg	 r	 1.742	 GoodTrial	 allStim	 ra
20	 7	 0	 x	 LineStimuli//allStim/stimNo146r0c0v1.8.jpg	 r	 1.895	 GoodTrial	 allStim	 ra
21	 7	 0	 x	 LineStimuli//allStim/stimNo139r0c0v4.3.jpg	 r	 2.406	 GoodTrial	 allStim	 ra
22	 7	 0	 x	 LineStimuli//allStim/stimNo127r0c0v2.3.jpg	 r	 2.037	 GoodTrial	 allStim	 ra
23	 7	 0	 x	 LineStimuli//allStim/stimNo143r0c0v2.3.jpg	 r	 2.054	 GoodTrial	 allStim	 ra
24	 7	 1	 right	 LineStimuli//allStim/stimNo102r6c18v2.3.jpg	 l	 1.678	 GoodTrial	 allStim	 ra
25	 7	 0	 x	 LineStimuli//allStim/stimNo146r0c0v1.5.jpg	 r	 2.641	 GoodTrial	 allStim	 ra
26	 7	 1	 left	 LineStimuli//allStim/stimNo105r5c4v2.8.jpg	 l	 1.594	 GoodTrial	 allStim	 ra
27	 7	 1	 left	 LineStimuli//allStim/stimNo100r8c3v4.3.jpg	 l	 1.551	 GoodTrial	 allStim	 ra
28	 7	 1	 right	 LineStimuli//allStim/stimNo82r11c15v1.5.jpg	 l	 1.889	 GoodTrial	 allStim	 ra
29	 7	 1	 left	 LineStimuli//allStim/stimNo106r9c9v3.3.jpg	 l	 1.566	 GoodTrial	 allStim	 ra
30	 7	 1	 left	 LineStimuli//allStim/stimNo98r15c2v2.8.jpg	 l	 1.610	 GoodTrial	 allStim	 ra
31	 7	 1	 left	 LineStimuli//allStim/stimNo96r15c4v1.5.jpg	 l	 1.827	 GoodTrial	 allStim	 ra
32	 7	 1	 right	 LineStimuli//allStim/stimNo92r6c21v3.8.jpg	 l	 1.552	 GoodTrial	 allStim	 ra
33	 7	 0	 x	 LineStimuli//allStim/stimNo150r0c0v1.5.jpg	 r	 3.308	 GoodTrial	 allStim	 ra
34	 7	 0	 x	 LineStimuli//allStim/stimNo146r0c0v3.8.jpg	 r	 1.826	 GoodTrial	 allStim	 ra
35	 7	 1	 right	 LineStimuli//allStim/stimNo112r10c16v4.3.jpg	 l	 1.568	 GoodTrial	 allStim	 ra
36	 7	 1	 left	 LineStimuli//allStim/stimNo86r15c6v2.8.jpg	 l	 2.355	 GoodTrial	 allStim	 ra
37	 7	 0	 x	 LineStimuli//allStim/stimNo139r0c0v3.8.jpg	 r	 1.888	 GoodTrial	 allStim	 ra
38	 7	 0	 x	 LineStimuli//allStim/stimNo137r0c0v4.3.jpg	 r	 1.577	 GoodTrial	 allStim	 ra
39	 7	 1	 left	 LineStimuli//allStim/stimNo113r14c9v3.8.jpg	 l	 1.719	 GoodTrial	 allStim	 ra
40	 7	 1	 left	 LineStimuli//allStim/stimNo117r11c8v2.3.jpg	 l	 1.581	 GoodTrial	 allStim	 ra
41	 7	 1	 right	 LineStimuli//allStim/stimNo93r3c17v1.8.jpg	 l	 1.814	 GoodTrial	 allStim	 ra
42	 7	 0	 x	 LineStimuli//allStim/stimNo154r0c0v2.3.jpg	 r	 3.577	 GoodTrial	 allStim	 ra
43	 7	 1	 right	 LineStimuli//allStim/stimNo84r3c18v1.5.jpg	 l	 2.088	 GoodTrial	 allStim	 ra
44	 7	 0	 x	 LineStimuli//allStim/stimNo131r0c0v3.3.jpg	 r	 2.589	 GoodTrial	 allStim	 ra
45	 7	 0	 x	 LineStimuli//allStim/stimNo140r0c0v1.5.jpg	 r	 2.955	 GoodTrial	 allStim	 ra
46	 7	 0	 x	 LineStimuli//allStim/stimNo160r0c0v1.8.jpg	 r	 1.910	 GoodTrial	 allStim	 ra
47	 7	 1	 left	 LineStimuli//allStim/stimNo88r10c3v4.3.jpg	 l	 1.706	 GoodTrial	 allStim	 ra
48	 7	 0	 x	 LineStimuli//allStim/stimNo151r0c0v2.3.jpg	 r	 1.840	 GoodTrial	 allStim	 ra
49	 7	 0	 x	 LineStimuli//allStim/stimNo135r0c0v3.8.jpg	 r	 0.368	 EARLY_RESPONSE	 allStim	 ra
50	 7	 0	 x	 LineStimuli//allStim/stimNo158r0c0v1.5.jpg	 r	 2.496	 GoodTrial	 allStim	 ra
