Trial	Block	Target_pr	Target_side	Name	Key	RT	Message	Block_Type	Condition
1	 1	 0	 x	 LineStimuli//allStim/stimNo155r0c0v2.3.jpg	 r	 3.320	 GoodTrial	 allStim	 ra
2	 1	 0	 x	 LineStimuli//allStim/stimNo137r0c0v1.5.jpg	 r	 4.097	 GoodTrial	 allStim	 ra
3	 1	 1	 left	 LineStimuli//allStim/stimNo98r2c9v3.8.jpg	 l	 1.722	 GoodTrial	 allStim	 ra
4	 1	 0	 x	 LineStimuli//allStim/stimNo158r0c0v4.3.jpg	 r	 1.913	 GoodTrial	 allStim	 ra
5	 1	 0	 x	 LineStimuli//allStim/stimNo124r0c0v4.3.jpg	 r	 2.346	 GoodTrial	 allStim	 ra
6	 1	 1	 left	 LineStimuli//allStim/stimNo88r10c3v4.3.jpg	 l	 1.617	 GoodTrial	 allStim	 ra
7	 1	 1	 right	 LineStimuli//allStim/stimNo88r10c17v3.8.jpg	 l	 1.511	 GoodTrial	 allStim	 ra
8	 1	 0	 x	 LineStimuli//allStim/stimNo149r0c0v1.8.jpg	 r	 3.712	 GoodTrial	 allStim	 ra
9	 1	 0	 x	 LineStimuli//allStim/stimNo130r0c0v3.8.jpg	 r	 2.254	 GoodTrial	 allStim	 ra
10	 1	 0	 x	 LineStimuli//allStim/stimNo141r0c0v1.5.jpg	 r	 3.263	 GoodTrial	 allStim	 ra
11	 1	 0	 x	 LineStimuli//allStim/stimNo125r0c0v2.3.jpg	 r	 3.067	 GoodTrial	 allStim	 ra
12	 1	 0	 x	 LineStimuli//allStim/stimNo153r0c0v3.8.jpg	 r	 2.263	 GoodTrial	 allStim	 ra
13	 1	 0	 x	 LineStimuli//allStim/stimNo154r0c0v3.3.jpg	 r	 2.209	 GoodTrial	 allStim	 ra
14	 1	 0	 x	 LineStimuli//allStim/stimNo158r0c0v2.3.jpg	 r	 3.405	 GoodTrial	 allStim	 ra
15	 1	 1	 right	 LineStimuli//allStim/stimNo84r11c21v1.8.jpg	 l	 1.983	 GoodTrial	 allStim	 ra
16	 1	 0	 x	 LineStimuli//allStim/stimNo139r0c0v3.8.jpg	 r	 2.272	 GoodTrial	 allStim	 ra
17	 1	 0	 x	 LineStimuli//allStim/stimNo127r0c0v4.3.jpg	 r	 2.177	 GoodTrial	 allStim	 ra
18	 1	 1	 right	 LineStimuli//allStim/stimNo100r9c13v1.8.jpg	 l	 1.741	 GoodTrial	 allStim	 ra
19	 1	 0	 x	 LineStimuli//allStim/stimNo154r0c0v2.8.jpg	 r	 2.191	 GoodTrial	 allStim	 ra
20	 1	 1	 right	 LineStimuli//allStim/stimNo115r9c14v2.8.jpg	 l	 1.542	 GoodTrial	 allStim	 ra
21	 1	 1	 left	 LineStimuli//allStim/stimNo106r9c9v2.3.jpg	 l	 1.572	 GoodTrial	 allStim	 ra
22	 1	 1	 right	 LineStimuli//allStim/stimNo114r10c15v4.3.jpg	 l	 1.502	 GoodTrial	 allStim	 ra
23	 1	 1	 right	 LineStimuli//allStim/stimNo92r14c21v2.8.jpg	 l	 1.578	 GoodTrial	 allStim	 ra
24	 1	 0	 x	 LineStimuli//allStim/stimNo156r0c0v1.8.jpg	 r	 3.756	 GoodTrial	 allStim	 ra
25	 1	 0	 x	 LineStimuli//allStim/stimNo123r0c0v2.3.jpg	 r	 2.977	 GoodTrial	 allStim	 ra
26	 1	 1	 right	 LineStimuli//allStim/stimNo87r15c13v3.3.jpg	 l	 1.550	 GoodTrial	 allStim	 ra
27	 1	 1	 right	 LineStimuli//allStim/stimNo88r9c14v3.3.jpg	 l	 1.460	 GoodTrial	 allStim	 ra
28	 1	 0	 x	 LineStimuli//allStim/stimNo156r0c0v3.3.jpg	 r	 2.127	 GoodTrial	 allStim	 ra
29	 1	 1	 right	 LineStimuli//allStim/stimNo114r10c14v3.8.jpg	 l	 1.486	 GoodTrial	 allStim	 ra
30	 1	 1	 left	 LineStimuli//allStim/stimNo91r2c3v2.8.jpg	 l	 1.957	 GoodTrial	 allStim	 ra
31	 1	 1	 right	 LineStimuli//allStim/stimNo92r2c20v4.3.jpg	 l	 1.569	 GoodTrial	 allStim	 ra
32	 1	 0	 x	 LineStimuli//allStim/stimNo133r0c0v1.8.jpg	 r	 3.845	 GoodTrial	 allStim	 ra
33	 1	 1	 left	 LineStimuli//allStim/stimNo120r14c9v1.8.jpg	 l	 2.154	 GoodTrial	 allStim	 ra
34	 1	 1	 left	 LineStimuli//allStim/stimNo109r8c6v1.5.jpg	 l	 2.208	 GoodTrial	 allStim	 ra
35	 1	 1	 right	 LineStimuli//allStim/stimNo112r10c16v4.3.jpg	 l	 1.519	 GoodTrial	 allStim	 ra
36	 1	 1	 left	 LineStimuli//allStim/stimNo117r2c5v3.3.jpg	 l	 1.472	 GoodTrial	 allStim	 ra
37	 1	 1	 right	 LineStimuli//allStim/stimNo100r8c13v2.8.jpg	 l	 1.466	 GoodTrial	 allStim	 ra
38	 1	 1	 left	 LineStimuli//allStim/stimNo110r7c9v3.8.jpg	 l	 1.525	 GoodTrial	 allStim	 ra
39	 1	 1	 right	 LineStimuli//allStim/stimNo97r6c21v4.3.jpg	 l	 1.455	 GoodTrial	 allStim	 ra
40	 1	 1	 right	 LineStimuli//allStim/stimNo83r6c13v1.8.jpg	 l	 1.500	 GoodTrial	 allStim	 ra
41	 1	 0	 x	 LineStimuli//allStim/stimNo135r0c0v2.3.jpg	 r	 2.553	 GoodTrial	 allStim	 ra
42	 1	 0	 x	 LineStimuli//allStim/stimNo144r0c0v4.3.jpg	 r	 2.096	 GoodTrial	 allStim	 ra
43	 1	 0	 x	 LineStimuli//allStim/stimNo140r0c0v1.5.jpg	 r	 3.875	 GoodTrial	 allStim	 ra
44	 1	 0	 x	 LineStimuli//allStim/stimNo136r0c0v3.8.jpg	 r	 2.610	 GoodTrial	 allStim	 ra
45	 1	 1	 left	 LineStimuli//allStim/stimNo110r6c7v4.3.jpg	 l	 1.489	 GoodTrial	 allStim	 ra
46	 1	 1	 left	 LineStimuli//allStim/stimNo88r6c7v1.5.jpg	 r	 3.627	 GoodTrial	 allStim	 ra
47	 1	 1	 left	 LineStimuli//allStim/stimNo100r3c3v3.3.jpg	 l	 1.590	 GoodTrial	 allStim	 ra
48	 1	 1	 left	 LineStimuli//allStim/stimNo104r12c8v3.8.jpg	 l	 1.615	 GoodTrial	 allStim	 ra
49	 1	 1	 right	 LineStimuli//allStim/stimNo82r11c15v1.5.jpg	 l	 2.305	 GoodTrial	 allStim	 ra
50	 1	 1	 left	 LineStimuli//allStim/stimNo91r14c4v1.8.jpg	 l	 1.897	 GoodTrial	 allStim	 ra
1	 2	 0	 x	 LineStimuli//allStim/stimNo133r0c0v3.3.jpg	 r	 1.815	 GoodTrial	 allStim	 ra
2	 2	 1	 right	 LineStimuli//allStim/stimNo100r9c13v1.8.jpg	 l	 1.601	 GoodTrial	 allStim	 ra
3	 2	 0	 x	 LineStimuli//allStim/stimNo147r0c0v1.5.jpg	 r	 3.215	 GoodTrial	 allStim	 ra
4	 2	 0	 x	 LineStimuli//allStim/stimNo143r0c0v1.5.jpg	 r	 2.395	 GoodTrial	 allStim	 ra
5	 2	 1	 right	 LineStimuli//allStim/stimNo112r12c16v3.8.jpg	 l	 1.463	 GoodTrial	 allStim	 ra
6	 2	 1	 left	 LineStimuli//allStim/stimNo100r8c6v2.3.jpg	 l	 1.529	 GoodTrial	 allStim	 ra
7	 2	 1	 right	 LineStimuli//allStim/stimNo108r13c15v1.5.jpg	 l	 1.627	 GoodTrial	 allStim	 ra
8	 2	 1	 left	 LineStimuli//allStim/stimNo94r8c9v2.3.jpg	 l	 1.481	 GoodTrial	 allStim	 ra
9	 2	 0	 x	 LineStimuli//allStim/stimNo147r0c0v3.8.jpg	 r	 1.827	 GoodTrial	 allStim	 ra
10	 2	 0	 x	 LineStimuli//allStim/stimNo129r0c0v1.5.jpg	 r	 2.742	 GoodTrial	 allStim	 ra
11	 2	 1	 left	 LineStimuli//allStim/stimNo102r3c2v2.8.jpg	 l	 1.631	 GoodTrial	 allStim	 ra
12	 2	 0	 x	 LineStimuli//allStim/stimNo142r0c0v4.3.jpg	 r	 1.761	 GoodTrial	 allStim	 ra
13	 2	 0	 x	 LineStimuli//allStim/stimNo138r0c0v1.5.jpg	 r	 3.621	 GoodTrial	 allStim	 ra
14	 2	 1	 left	 LineStimuli//allStim/stimNo86r14c4v1.8.jpg	 l	 1.913	 GoodTrial	 allStim	 ra
15	 2	 1	 left	 LineStimuli//allStim/stimNo91r14c4v1.8.jpg	 l	 2.234	 GoodTrial	 allStim	 ra
16	 2	 1	 left	 LineStimuli//allStim/stimNo83r14c4v2.3.jpg	 l	 1.688	 GoodTrial	 allStim	 ra
17	 2	 0	 x	 LineStimuli//allStim/stimNo142r0c0v1.5.jpg	 r	 4.681	 GoodTrial	 allStim	 ra
18	 2	 0	 x	 LineStimuli//allStim/stimNo137r0c0v2.3.jpg	 r	 3.309	 GoodTrial	 allStim	 ra
19	 2	 1	 left	 LineStimuli//allStim/stimNo119r3c2v2.3.jpg	 l	 1.793	 GoodTrial	 allStim	 ra
20	 2	 1	 left	 LineStimuli//allStim/stimNo95r13c9v2.3.jpg	 l	 1.625	 GoodTrial	 allStim	 ra
21	 2	 1	 left	 LineStimuli//allStim/stimNo104r12c8v3.8.jpg	 l	 1.523	 GoodTrial	 allStim	 ra
22	 2	 1	 right	 LineStimuli//allStim/stimNo81r3c21v3.8.jpg	 r	 1.766	 GoodTrial	 allStim	 ra
23	 2	 0	 x	 LineStimuli//allStim/stimNo158r0c0v2.3.jpg	 r	 2.581	 GoodTrial	 allStim	 ra
24	 2	 0	 x	 LineStimuli//allStim/stimNo127r0c0v2.8.jpg	 r	 2.646	 GoodTrial	 allStim	 ra
25	 2	 0	 x	 LineStimuli//allStim/stimNo123r0c0v2.3.jpg	 r	 2.561	 GoodTrial	 allStim	 ra
26	 2	 0	 x	 LineStimuli//allStim/stimNo149r0c0v3.8.jpg	 r	 2.276	 GoodTrial	 allStim	 ra
27	 2	 1	 left	 LineStimuli//allStim/stimNo108r5c8v4.3.jpg	 l	 1.576	 GoodTrial	 allStim	 ra
28	 2	 0	 x	 LineStimuli//allStim/stimNo142r0c0v2.3.jpg	 r	 2.522	 GoodTrial	 allStim	 ra
29	 2	 1	 left	 LineStimuli//allStim/stimNo115r5c9v1.8.jpg	 l	 1.597	 GoodTrial	 allStim	 ra
30	 2	 1	 left	 LineStimuli//allStim/stimNo93r8c2v3.8.jpg	 l	 1.560	 GoodTrial	 allStim	 ra
31	 2	 0	 x	 LineStimuli//allStim/stimNo121r0c0v2.8.jpg	 r	 2.148	 GoodTrial	 allStim	 ra
32	 2	 1	 right	 LineStimuli//allStim/stimNo115r14c18v1.5.jpg	 l	 2.849	 GoodTrial	 allStim	 ra
33	 2	 0	 x	 LineStimuli//allStim/stimNo159r0c0v2.3.jpg	 r	 2.233	 GoodTrial	 allStim	 ra
34	 2	 0	 x	 LineStimuli//allStim/stimNo126r0c0v1.5.jpg	 r	 3.756	 GoodTrial	 allStim	 ra
35	 2	 0	 x	 LineStimuli//allStim/stimNo155r0c0v3.3.jpg	 r	 2.135	 GoodTrial	 allStim	 ra
36	 2	 0	 x	 LineStimuli//allStim/stimNo141r0c0v2.3.jpg	 r	 2.564	 GoodTrial	 allStim	 ra
37	 2	 0	 x	 LineStimuli//allStim/stimNo124r0c0v4.3.jpg	 r	 1.967	 GoodTrial	 allStim	 ra
38	 2	 0	 x	 LineStimuli//allStim/stimNo121r0c0v3.8.jpg	 r	 1.945	 GoodTrial	 allStim	 ra
39	 2	 1	 right	 LineStimuli//allStim/stimNo95r5c21v3.8.jpg	 l	 1.647	 GoodTrial	 allStim	 ra
40	 2	 0	 x	 LineStimuli//allStim/stimNo152r0c0v1.5.jpg	 r	 3.599	 GoodTrial	 allStim	 ra
41	 2	 1	 right	 LineStimuli//allStim/stimNo87r15c13v3.3.jpg	 l	 1.606	 GoodTrial	 allStim	 ra
42	 2	 0	 x	 LineStimuli//allStim/stimNo154r0c0v2.3.jpg	 r	 1.943	 GoodTrial	 allStim	 ra
43	 2	 0	 x	 LineStimuli//allStim/stimNo131r0c0v4.3.jpg	 r	 2.172	 GoodTrial	 allStim	 ra
44	 2	 0	 x	 LineStimuli//allStim/stimNo132r0c0v1.5.jpg	 r	 2.149	 GoodTrial	 allStim	 ra
45	 2	 1	 right	 LineStimuli//allStim/stimNo82r11c20v3.3.jpg	 l	 1.614	 GoodTrial	 allStim	 ra
46	 2	 0	 x	 LineStimuli//allStim/stimNo121r0c0v3.3.jpg	 r	 1.958	 GoodTrial	 allStim	 ra
47	 2	 1	 right	 LineStimuli//allStim/stimNo114r10c14v3.8.jpg	 l	 1.504	 GoodTrial	 allStim	 ra
48	 2	 1	 right	 LineStimuli//allStim/stimNo118r4c17v2.3.jpg	 l	 1.615	 GoodTrial	 allStim	 ra
49	 2	 1	 left	 LineStimuli//allStim/stimNo116r4c7v2.8.jpg	 l	 1.569	 GoodTrial	 allStim	 ra
50	 2	 1	 left	 LineStimuli//allStim/stimNo94r14c9v3.3.jpg	 l	 1.569	 GoodTrial	 allStim	 ra
1	 3	 1	 right	 LineStimuli//allStim/stimNo109r7c17v1.8.jpg	 l	 1.946	 GoodTrial	 allStim	 ra
2	 3	 1	 left	 LineStimuli//allStim/stimNo116r4c7v1.8.jpg	 l	 1.498	 GoodTrial	 allStim	 ra
3	 3	 0	 x	 LineStimuli//allStim/stimNo145r0c0v2.8.jpg	 r	 2.282	 GoodTrial	 allStim	 ra
4	 3	 0	 x	 LineStimuli//allStim/stimNo144r0c0v4.3.jpg	 r	 1.929	 GoodTrial	 allStim	 ra
5	 3	 1	 left	 LineStimuli//allStim/stimNo83r12c4v2.8.jpg	 l	 1.825	 GoodTrial	 allStim	 ra
6	 3	 1	 left	 LineStimuli//allStim/stimNo113r4c4v1.5.jpg	 l	 1.752	 GoodTrial	 allStim	 ra
7	 3	 0	 x	 LineStimuli//allStim/stimNo129r0c0v3.8.jpg	 r	 2.220	 GoodTrial	 allStim	 ra
8	 3	 1	 right	 LineStimuli//allStim/stimNo111r9c15v2.8.jpg	 l	 1.568	 GoodTrial	 allStim	 ra
9	 3	 1	 right	 LineStimuli//allStim/stimNo93r3c17v1.8.jpg	 l	 1.659	 GoodTrial	 allStim	 ra
10	 3	 0	 x	 LineStimuli//allStim/stimNo147r0c0v2.3.jpg	 r	 2.240	 GoodTrial	 allStim	 ra
11	 3	 0	 x	 LineStimuli//allStim/stimNo132r0c0v3.3.jpg	 r	 1.890	 GoodTrial	 allStim	 ra
12	 3	 1	 right	 LineStimuli//allStim/stimNo84r6c16v3.3.jpg	 l	 1.551	 GoodTrial	 allStim	 ra
13	 3	 1	 right	 LineStimuli//allStim/stimNo117r10c21v4.3.jpg	 l	 1.590	 GoodTrial	 allStim	 ra
14	 3	 1	 right	 LineStimuli//allStim/stimNo106r13c20v2.8.jpg	 l	 1.614	 GoodTrial	 allStim	 ra
15	 3	 0	 x	 LineStimuli//allStim/stimNo151r0c0v1.5.jpg	 r	 3.086	 GoodTrial	 allStim	 ra
16	 3	 0	 x	 LineStimuli//allStim/stimNo148r0c0v1.8.jpg	 r	 2.009	 GoodTrial	 allStim	 ra
17	 3	 1	 right	 LineStimuli//allStim/stimNo103r3c19v2.8.jpg	 l	 1.547	 GoodTrial	 allStim	 ra
18	 3	 1	 left	 LineStimuli//allStim/stimNo109r8c6v1.5.jpg	 l	 1.940	 GoodTrial	 allStim	 ra
19	 3	 0	 x	 LineStimuli//allStim/stimNo131r0c0v2.3.jpg	 r	 2.539	 GoodTrial	 allStim	 ra
20	 3	 0	 x	 LineStimuli//allStim/stimNo138r0c0v3.8.jpg	 r	 1.939	 GoodTrial	 allStim	 ra
21	 3	 1	 left	 LineStimuli//allStim/stimNo98r3c8v4.3.jpg	 l	 1.546	 GoodTrial	 allStim	 ra
22	 3	 1	 right	 LineStimuli//allStim/stimNo101r8c14v2.3.jpg	 l	 1.674	 GoodTrial	 allStim	 ra
23	 3	 0	 x	 LineStimuli//allStim/stimNo121r0c0v1.5.jpg	 r	 3.381	 GoodTrial	 allStim	 ra
24	 3	 1	 right	 LineStimuli//allStim/stimNo112r5c15v3.3.jpg	 l	 1.531	 GoodTrial	 allStim	 ra
25	 3	 1	 left	 LineStimuli//allStim/stimNo97r15c9v3.8.jpg	 l	 1.537	 GoodTrial	 allStim	 ra
26	 3	 0	 x	 LineStimuli//allStim/stimNo129r0c0v2.3.jpg	 r	 2.261	 GoodTrial	 allStim	 ra
27	 3	 0	 x	 LineStimuli//allStim/stimNo131r0c0v4.3.jpg	 r	 1.901	 GoodTrial	 allStim	 ra
28	 3	 0	 x	 LineStimuli//allStim/stimNo148r0c0v3.8.jpg	 r	 1.859	 GoodTrial	 allStim	 ra
29	 3	 1	 left	 LineStimuli//allStim/stimNo116r2c2v2.3.jpg	 l	 1.979	 GoodTrial	 allStim	 ra
30	 3	 0	 x	 LineStimuli//allStim/stimNo133r0c0v3.3.jpg	 r	 2.352	 GoodTrial	 allStim	 ra
31	 3	 0	 x	 LineStimuli//allStim/stimNo157r0c0v3.3.jpg	 r	 2.302	 GoodTrial	 allStim	 ra
32	 3	 1	 right	 LineStimuli//allStim/stimNo85r4c15v2.8.jpg	 l	 1.528	 GoodTrial	 allStim	 ra
33	 3	 0	 x	 LineStimuli//allStim/stimNo138r0c0v3.3.jpg	 r	 1.600	 GoodTrial	 allStim	 ra
34	 3	 0	 x	 LineStimuli//allStim/stimNo132r0c0v1.5.jpg	 r	 2.833	 GoodTrial	 allStim	 ra
35	 3	 1	 right	 LineStimuli//allStim/stimNo111r4c21v1.8.jpg	 l	 1.721	 GoodTrial	 allStim	 ra
36	 3	 0	 x	 LineStimuli//allStim/stimNo130r0c0v3.8.jpg	 r	 2.119	 GoodTrial	 allStim	 ra
37	 3	 0	 x	 LineStimuli//allStim/stimNo128r0c0v3.3.jpg	 r	 2.091	 GoodTrial	 allStim	 ra
38	 3	 0	 x	 LineStimuli//allStim/stimNo136r0c0v1.5.jpg	 r	 3.488	 GoodTrial	 allStim	 ra
39	 3	 0	 x	 LineStimuli//allStim/stimNo129r0c0v1.8.jpg	 r	 2.740	 GoodTrial	 allStim	 ra
40	 3	 0	 x	 LineStimuli//allStim/stimNo159r0c0v3.3.jpg	 r	 2.001	 GoodTrial	 allStim	 ra
41	 3	 0	 x	 LineStimuli//allStim/stimNo137r0c0v2.3.jpg	 r	 1.839	 GoodTrial	 allStim	 ra
42	 3	 0	 x	 LineStimuli//allStim/stimNo146r0c0v3.8.jpg	 r	 2.064	 GoodTrial	 allStim	 ra
43	 3	 1	 right	 LineStimuli//allStim/stimNo102r6c18v2.3.jpg	 l	 1.586	 GoodTrial	 allStim	 ra
44	 3	 1	 right	 LineStimuli//allStim/stimNo93r4c16v2.3.jpg	 l	 1.478	 GoodTrial	 allStim	 ra
45	 3	 1	 left	 LineStimuli//allStim/stimNo108r13c2v3.3.jpg	 l	 1.762	 GoodTrial	 allStim	 ra
46	 3	 1	 right	 LineStimuli//allStim/stimNo90r8c17v3.8.jpg	 l	 1.535	 GoodTrial	 allStim	 ra
47	 3	 0	 x	 LineStimuli//allStim/stimNo147r0c0v1.5.jpg	 l	 2.241	 GoodTrial	 allStim	 ra
48	 3	 0	 x	 LineStimuli//allStim/stimNo140r0c0v3.3.jpg	 r	 1.830	 GoodTrial	 allStim	 ra
49	 3	 1	 right	 LineStimuli//allStim/stimNo118r9c20v1.5.jpg	 l	 1.878	 GoodTrial	 allStim	 ra
50	 3	 0	 x	 LineStimuli//allStim/stimNo156r0c0v3.3.jpg	 r	 1.692	 GoodTrial	 allStim	 ra
1	 4	 1	 left	 LineStimuli//allStim/stimNo85r6c4v3.3.jpg	 l	 1.616	 GoodTrial	 allStim	 ra
2	 4	 0	 x	 LineStimuli//allStim/stimNo138r0c0v2.8.jpg	 r	 1.737	 GoodTrial	 allStim	 ra
3	 4	 0	 x	 LineStimuli//allStim/stimNo136r0c0v3.8.jpg	 r	 1.754	 GoodTrial	 allStim	 ra
4	 4	 1	 right	 LineStimuli//allStim/stimNo91r12c16v3.3.jpg	 l	 1.488	 GoodTrial	 allStim	 ra
5	 4	 0	 x	 LineStimuli//allStim/stimNo148r0c0v3.3.jpg	 r	 1.753	 GoodTrial	 allStim	 ra
6	 4	 0	 x	 LineStimuli//allStim/stimNo127r0c0v2.3.jpg	 r	 1.668	 GoodTrial	 allStim	 ra
7	 4	 1	 left	 LineStimuli//allStim/stimNo120r14c9v1.8.jpg	 l	 1.880	 GoodTrial	 allStim	 ra
8	 4	 0	 x	 LineStimuli//allStim/stimNo156r0c0v3.3.jpg	 r	 1.798	 GoodTrial	 allStim	 ra
9	 4	 1	 right	 LineStimuli//allStim/stimNo115r14c18v1.5.jpg	 l	 1.873	 GoodTrial	 allStim	 ra
10	 4	 1	 left	 LineStimuli//allStim/stimNo106r9c9v3.8.jpg	 l	 1.502	 GoodTrial	 allStim	 ra
11	 4	 1	 left	 LineStimuli//allStim/stimNo81r15c8v3.3.jpg	 l	 1.442	 GoodTrial	 allStim	 ra
12	 4	 1	 left	 LineStimuli//allStim/stimNo88r6c7v1.5.jpg	 r	 3.404	 GoodTrial	 allStim	 ra
13	 4	 1	 left	 LineStimuli//allStim/stimNo113r14c9v3.8.jpg	 l	 1.551	 GoodTrial	 allStim	 ra
14	 4	 0	 x	 LineStimuli//allStim/stimNo150r0c0v4.3.jpg	 r	 1.961	 GoodTrial	 allStim	 ra
15	 4	 0	 x	 LineStimuli//allStim/stimNo123r0c0v3.8.jpg	 r	 2.188	 GoodTrial	 allStim	 ra
16	 4	 0	 x	 LineStimuli//allStim/stimNo155r0c0v1.5.jpg	 r	 2.827	 GoodTrial	 allStim	 ra
17	 4	 0	 x	 LineStimuli//allStim/stimNo128r0c0v3.3.jpg	 r	 1.895	 GoodTrial	 allStim	 ra
18	 4	 1	 left	 LineStimuli//allStim/stimNo98r15c5v1.8.jpg	 r	 2.306	 GoodTrial	 allStim	 ra
19	 4	 0	 x	 LineStimuli//allStim/stimNo129r0c0v1.8.jpg	 r	 3.820	 GoodTrial	 allStim	 ra
20	 4	 0	 x	 LineStimuli//allStim/stimNo156r0c0v3.8.jpg	 r	 1.942	 GoodTrial	 allStim	 ra
21	 4	 0	 x	 LineStimuli//allStim/stimNo140r0c0v4.3.jpg	 r	 1.817	 GoodTrial	 allStim	 ra
22	 4	 0	 x	 LineStimuli//allStim/stimNo122r0c0v2.8.jpg	 r	 1.962	 GoodTrial	 allStim	 ra
23	 4	 0	 x	 LineStimuli//allStim/stimNo144r0c0v1.8.jpg	 r	 2.951	 GoodTrial	 allStim	 ra
24	 4	 0	 x	 LineStimuli//allStim/stimNo160r0c0v1.8.jpg	 r	 3.555	 GoodTrial	 allStim	 ra
25	 4	 0	 x	 LineStimuli//allStim/stimNo136r0c0v2.8.jpg	 r	 2.135	 GoodTrial	 allStim	 ra
26	 4	 1	 right	 LineStimuli//allStim/stimNo90r15c13v1.8.jpg	 l	 1.866	 GoodTrial	 allStim	 ra
27	 4	 1	 right	 LineStimuli//allStim/stimNo104r5c18v1.5.jpg	 l	 2.625	 GoodTrial	 allStim	 ra
28	 4	 0	 x	 LineStimuli//allStim/stimNo144r0c0v2.3.jpg	 r	 2.417	 GoodTrial	 allStim	 ra
29	 4	 1	 left	 LineStimuli//allStim/stimNo110r7c9v3.8.jpg	 l	 1.718	 GoodTrial	 allStim	 ra
30	 4	 1	 right	 LineStimuli//allStim/stimNo102r13c13v3.3.jpg	 l	 1.618	 GoodTrial	 allStim	 ra
31	 4	 0	 x	 LineStimuli//allStim/stimNo133r0c0v4.3.jpg	 r	 2.179	 GoodTrial	 allStim	 ra
32	 4	 1	 right	 LineStimuli//allStim/stimNo102r14c17v1.8.jpg	 l	 1.779	 GoodTrial	 allStim	 ra
33	 4	 0	 x	 LineStimuli//allStim/stimNo134r0c0v1.5.jpg	 r	 4.067	 GoodTrial	 allStim	 ra
34	 4	 1	 right	 LineStimuli//allStim/stimNo84r15c20v4.3.jpg	 l	 1.600	 GoodTrial	 allStim	 ra
35	 4	 0	 x	 LineStimuli//allStim/stimNo142r0c0v1.8.jpg	 r	 2.721	 GoodTrial	 allStim	 ra
36	 4	 1	 left	 LineStimuli//allStim/stimNo110r4c3v3.3.jpg	 l	 1.537	 GoodTrial	 allStim	 ra
37	 4	 0	 x	 LineStimuli//allStim/stimNo160r0c0v3.8.jpg	 r	 1.775	 GoodTrial	 allStim	 ra
38	 4	 1	 right	 LineStimuli//allStim/stimNo114r10c15v4.3.jpg	 l	 1.497	 GoodTrial	 allStim	 ra
39	 4	 1	 right	 LineStimuli//allStim/stimNo118r9c20v1.5.jpg	 l	 2.270	 GoodTrial	 allStim	 ra
40	 4	 0	 x	 LineStimuli//allStim/stimNo148r0c0v1.5.jpg	 l	 3.409	 GoodTrial	 allStim	 ra
41	 4	 0	 x	 LineStimuli//allStim/stimNo124r0c0v2.8.jpg	 r	 2.371	 GoodTrial	 allStim	 ra
42	 4	 0	 x	 LineStimuli//allStim/stimNo147r0c0v2.8.jpg	 r	 1.997	 GoodTrial	 allStim	 ra
43	 4	 0	 x	 LineStimuli//allStim/stimNo141r0c0v2.3.jpg	 r	 2.375	 GoodTrial	 allStim	 ra
44	 4	 1	 right	 LineStimuli//allStim/stimNo92r6c18v1.5.jpg	 l	 2.642	 GoodTrial	 allStim	 ra
45	 4	 1	 left	 LineStimuli//allStim/stimNo110r6c7v4.3.jpg	 l	 1.488	 GoodTrial	 allStim	 ra
46	 4	 1	 right	 LineStimuli//allStim/stimNo84r11c21v1.8.jpg	 l	 2.094	 GoodTrial	 allStim	 ra
47	 4	 1	 left	 LineStimuli//allStim/stimNo83r4c2v4.3.jpg	 l	 1.552	 GoodTrial	 allStim	 ra
48	 4	 0	 x	 LineStimuli//allStim/stimNo155r0c0v2.3.jpg	 r	 2.515	 GoodTrial	 allStim	 ra
49	 4	 0	 x	 LineStimuli//allStim/stimNo134r0c0v2.3.jpg	 r	 2.082	 GoodTrial	 allStim	 ra
50	 4	 0	 x	 LineStimuli//allStim/stimNo146r0c0v1.8.jpg	 r	 2.433	 GoodTrial	 allStim	 ra
1	 5	 0	 x	 LineStimuli//allStim/stimNo142r0c0v2.3.jpg	 r	 2.199	 GoodTrial	 allStim	 ra
2	 5	 1	 right	 LineStimuli//allStim/stimNo118r11c15v1.8.jpg	 l	 2.021	 GoodTrial	 allStim	 ra
3	 5	 0	 x	 LineStimuli//allStim/stimNo152r0c0v1.8.jpg	 r	 2.385	 GoodTrial	 allStim	 ra
4	 5	 0	 x	 LineStimuli//allStim/stimNo151r0c0v2.8.jpg	 r	 2.288	 GoodTrial	 allStim	 ra
5	 5	 0	 x	 LineStimuli//allStim/stimNo124r0c0v4.3.jpg	 r	 1.931	 GoodTrial	 allStim	 ra
6	 5	 0	 x	 LineStimuli//allStim/stimNo150r0c0v1.5.jpg	 r	 2.847	 GoodTrial	 allStim	 ra
7	 5	 1	 right	 LineStimuli//allStim/stimNo97r6c13v3.3.jpg	 l	 1.625	 GoodTrial	 allStim	 ra
8	 5	 0	 x	 LineStimuli//allStim/stimNo135r0c0v3.8.jpg	 r	 1.833	 GoodTrial	 allStim	 ra
9	 5	 0	 x	 LineStimuli//allStim/stimNo121r0c0v2.3.jpg	 r	 1.937	 GoodTrial	 allStim	 ra
10	 5	 0	 x	 LineStimuli//allStim/stimNo155r0c0v3.3.jpg	 r	 1.824	 GoodTrial	 allStim	 ra
11	 5	 1	 right	 LineStimuli//allStim/stimNo117r11c17v2.8.jpg	 l	 1.682	 GoodTrial	 allStim	 ra
12	 5	 0	 x	 LineStimuli//allStim/stimNo126r0c0v2.3.jpg	 r	 2.191	 GoodTrial	 allStim	 ra
13	 5	 0	 x	 LineStimuli//allStim/stimNo141r0c0v1.5.jpg	 r	 4.019	 GoodTrial	 allStim	 ra
14	 5	 0	 x	 LineStimuli//allStim/stimNo146r0c0v3.8.jpg	 r	 1.903	 GoodTrial	 allStim	 ra
15	 5	 0	 x	 LineStimuli//allStim/stimNo147r0c0v4.3.jpg	 r	 1.622	 GoodTrial	 allStim	 ra
16	 5	 0	 x	 LineStimuli//allStim/stimNo148r0c0v1.5.jpg	 r	 2.402	 GoodTrial	 allStim	 ra
17	 5	 0	 x	 LineStimuli//allStim/stimNo134r0c0v2.3.jpg	 r	 2.223	 GoodTrial	 allStim	 ra
18	 5	 0	 x	 LineStimuli//allStim/stimNo125r0c0v3.3.jpg	 r	 1.725	 GoodTrial	 allStim	 ra
19	 5	 0	 x	 LineStimuli//allStim/stimNo142r0c0v1.5.jpg	 r	 1.717	 GoodTrial	 allStim	 ra
20	 5	 0	 x	 LineStimuli//allStim/stimNo137r0c0v3.8.jpg	 r	 1.585	 GoodTrial	 allStim	 ra
21	 5	 0	 x	 LineStimuli//allStim/stimNo157r0c0v3.3.jpg	 r	 1.708	 GoodTrial	 allStim	 ra
22	 5	 1	 left	 LineStimuli//allStim/stimNo113r14c9v3.8.jpg	 l	 1.616	 GoodTrial	 allStim	 ra
23	 5	 0	 x	 LineStimuli//allStim/stimNo121r0c0v3.8.jpg	 r	 1.870	 GoodTrial	 allStim	 ra
24	 5	 0	 x	 LineStimuli//allStim/stimNo155r0c0v3.8.jpg	 r	 1.907	 GoodTrial	 allStim	 ra
25	 5	 1	 right	 LineStimuli//allStim/stimNo86r6c16v1.5.jpg	 l	 2.029	 GoodTrial	 allStim	 ra
26	 5	 0	 x	 LineStimuli//allStim/stimNo135r0c0v3.3.jpg	 r	 2.614	 GoodTrial	 allStim	 ra
27	 5	 1	 left	 LineStimuli//allStim/stimNo89r8c9v1.5.jpg	 r	 3.750	 GoodTrial	 allStim	 ra
28	 5	 0	 x	 LineStimuli//allStim/stimNo157r0c0v1.5.jpg	 r	 2.834	 GoodTrial	 allStim	 ra
29	 5	 1	 left	 LineStimuli//allStim/stimNo85r6c4v3.3.jpg	 l	 1.536	 GoodTrial	 allStim	 ra
30	 5	 0	 x	 LineStimuli//allStim/stimNo144r0c0v2.8.jpg	 r	 2.048	 GoodTrial	 allStim	 ra
31	 5	 0	 x	 LineStimuli//allStim/stimNo144r0c0v1.5.jpg	 r	 2.960	 GoodTrial	 allStim	 ra
32	 5	 0	 x	 LineStimuli//allStim/stimNo150r0c0v2.8.jpg	 r	 2.038	 GoodTrial	 allStim	 ra
33	 5	 0	 x	 LineStimuli//allStim/stimNo159r0c0v2.3.jpg	 r	 2.059	 GoodTrial	 allStim	 ra
34	 5	 0	 x	 LineStimuli//allStim/stimNo123r0c0v3.8.jpg	 r	 1.842	 GoodTrial	 allStim	 ra
35	 5	 0	 x	 LineStimuli//allStim/stimNo158r0c0v4.3.jpg	 r	 1.752	 GoodTrial	 allStim	 ra
36	 5	 0	 x	 LineStimuli//allStim/stimNo154r0c0v3.3.jpg	 r	 1.735	 GoodTrial	 allStim	 ra
37	 5	 0	 x	 LineStimuli//allStim/stimNo148r0c0v2.3.jpg	 r	 1.734	 GoodTrial	 allStim	 ra
38	 5	 0	 x	 LineStimuli//allStim/stimNo146r0c0v1.8.jpg	 r	 2.209	 GoodTrial	 allStim	 ra
39	 5	 1	 right	 LineStimuli//allStim/stimNo95r5c21v3.8.jpg	 l	 1.656	 GoodTrial	 allStim	 ra
40	 5	 1	 right	 LineStimuli//allStim/stimNo87r13c19v2.3.jpg	 l	 1.659	 GoodTrial	 allStim	 ra
41	 5	 0	 x	 LineStimuli//allStim/stimNo134r0c0v3.3.jpg	 r	 1.796	 GoodTrial	 allStim	 ra
42	 5	 1	 left	 LineStimuli//allStim/stimNo104r8c6v2.8.jpg	 l	 1.556	 GoodTrial	 allStim	 ra
43	 5	 0	 x	 LineStimuli//allStim/stimNo121r0c0v1.5.jpg	 r	 3.128	 GoodTrial	 allStim	 ra
44	 5	 1	 left	 LineStimuli//allStim/stimNo114r4c4v1.5.jpg	 l	 2.265	 GoodTrial	 allStim	 ra
45	 5	 1	 right	 LineStimuli//allStim/stimNo90r13c21v2.8.jpg	 l	 1.755	 GoodTrial	 allStim	 ra
46	 5	 1	 left	 LineStimuli//allStim/stimNo110r4c7v1.8.jpg	 l	 1.639	 GoodTrial	 allStim	 ra
47	 5	 1	 right	 LineStimuli//allStim/stimNo94r12c13v4.3.jpg	 l	 1.721	 GoodTrial	 allStim	 ra
48	 5	 1	 left	 LineStimuli//allStim/stimNo119r9c8v3.8.jpg	 l	 1.508	 GoodTrial	 allStim	 ra
49	 5	 1	 right	 LineStimuli//allStim/stimNo93r14c18v1.5.jpg	 l	 1.772	 GoodTrial	 allStim	 ra
50	 5	 0	 x	 LineStimuli//allStim/stimNo158r0c0v3.8.jpg	 r	 2.140	 GoodTrial	 allStim	 ra
1	 6	 1	 right	 LineStimuli//allStim/stimNo96r4c19v4.3.jpg	 l	 1.538	 GoodTrial	 allStim	 ra
2	 6	 0	 x	 LineStimuli//allStim/stimNo148r0c0v4.3.jpg	 r	 2.622	 GoodTrial	 allStim	 ra
3	 6	 0	 x	 LineStimuli//allStim/stimNo146r0c0v1.5.jpg	 r	 2.484	 GoodTrial	 allStim	 ra
4	 6	 0	 x	 LineStimuli//allStim/stimNo135r0c0v1.8.jpg	 r	 3.419	 GoodTrial	 allStim	 ra
5	 6	 1	 right	 LineStimuli//allStim/stimNo99r12c16v1.8.jpg	 l	 1.841	 GoodTrial	 allStim	 ra
6	 6	 0	 x	 LineStimuli//allStim/stimNo158r0c0v4.3.jpg	 r	 1.817	 GoodTrial	 allStim	 ra
7	 6	 0	 x	 LineStimuli//allStim/stimNo159r0c0v1.8.jpg	 r	 2.731	 GoodTrial	 allStim	 ra
8	 6	 1	 left	 LineStimuli//allStim/stimNo109r15c7v3.3.jpg	 l	 1.587	 GoodTrial	 allStim	 ra
9	 6	 1	 right	 LineStimuli//allStim/stimNo82r7c18v1.8.jpg	 l	 1.918	 GoodTrial	 allStim	 ra
10	 6	 1	 left	 LineStimuli//allStim/stimNo100r8c3v4.3.jpg	 l	 1.491	 GoodTrial	 allStim	 ra
11	 6	 0	 x	 LineStimuli//allStim/stimNo154r0c0v2.3.jpg	 r	 2.550	 GoodTrial	 allStim	 ra
12	 6	 0	 x	 LineStimuli//allStim/stimNo154r0c0v4.3.jpg	 r	 1.738	 GoodTrial	 allStim	 ra
13	 6	 0	 x	 LineStimuli//allStim/stimNo136r0c0v1.5.jpg	 r	 2.636	 GoodTrial	 allStim	 ra
14	 6	 1	 left	 LineStimuli//allStim/stimNo83r9c9v3.8.jpg	 l	 1.668	 GoodTrial	 allStim	 ra
15	 6	 1	 left	 LineStimuli//allStim/stimNo104r8c6v2.8.jpg	 l	 1.829	 GoodTrial	 allStim	 ra
16	 6	 0	 x	 LineStimuli//allStim/stimNo155r0c0v2.3.jpg	 r	 3.299	 GoodTrial	 allStim	 ra
17	 6	 1	 left	 LineStimuli//allStim/stimNo85r2c5v1.5.jpg	 l	 1.995	 GoodTrial	 allStim	 ra
18	 6	 0	 x	 LineStimuli//allStim/stimNo142r0c0v2.8.jpg	 r	 1.916	 GoodTrial	 allStim	 ra
19	 6	 1	 right	 LineStimuli//allStim/stimNo84r15c20v4.3.jpg	 l	 1.567	 GoodTrial	 allStim	 ra
20	 6	 0	 x	 LineStimuli//allStim/stimNo126r0c0v3.8.jpg	 r	 1.659	 GoodTrial	 allStim	 ra
21	 6	 1	 left	 LineStimuli//allStim/stimNo81r4c3v2.3.jpg	 l	 1.493	 GoodTrial	 allStim	 ra
22	 6	 1	 left	 LineStimuli//allStim/stimNo113r3c8v2.3.jpg	 l	 1.543	 GoodTrial	 allStim	 ra
23	 6	 0	 x	 LineStimuli//allStim/stimNo149r0c0v3.3.jpg	 r	 2.183	 GoodTrial	 allStim	 ra
24	 6	 1	 left	 LineStimuli//allStim/stimNo108r5c8v4.3.jpg	 l	 1.468	 GoodTrial	 allStim	 ra
25	 6	 1	 left	 LineStimuli//allStim/stimNo88r15c9v1.8.jpg	 l	 2.137	 GoodTrial	 allStim	 ra
26	 6	 1	 right	 LineStimuli//allStim/stimNo101r8c14v2.3.jpg	 l	 1.574	 GoodTrial	 allStim	 ra
27	 6	 1	 left	 LineStimuli//allStim/stimNo95r11c9v4.3.jpg	 l	 1.461	 GoodTrial	 allStim	 ra
28	 6	 1	 left	 LineStimuli//allStim/stimNo120r14c9v1.8.jpg	 l	 1.615	 GoodTrial	 allStim	 ra
29	 6	 1	 left	 LineStimuli//allStim/stimNo97r15c6v1.5.jpg	 l	 2.840	 GoodTrial	 allStim	 ra
30	 6	 1	 left	 LineStimuli//allStim/stimNo113r14c9v3.8.jpg	 l	 1.454	 GoodTrial	 allStim	 ra
31	 6	 0	 x	 LineStimuli//allStim/stimNo152r0c0v1.8.jpg	 r	 2.897	 GoodTrial	 allStim	 ra
32	 6	 1	 right	 LineStimuli//allStim/stimNo91r10c16v3.8.jpg	 l	 1.519	 GoodTrial	 allStim	 ra
33	 6	 1	 left	 LineStimuli//allStim/stimNo95r13c9v2.3.jpg	 l	 1.617	 GoodTrial	 allStim	 ra
34	 6	 1	 left	 LineStimuli//allStim/stimNo113r9c5v2.8.jpg	 l	 1.534	 GoodTrial	 allStim	 ra
35	 6	 0	 x	 LineStimuli//allStim/stimNo121r0c0v4.3.jpg	 r	 1.759	 GoodTrial	 allStim	 ra
36	 6	 1	 left	 LineStimuli//allStim/stimNo104r2c4v2.3.jpg	 l	 1.576	 GoodTrial	 allStim	 ra
37	 6	 0	 x	 LineStimuli//allStim/stimNo143r0c0v3.3.jpg	 r	 2.223	 GoodTrial	 allStim	 ra
38	 6	 1	 left	 LineStimuli//allStim/stimNo116r2c2v2.3.jpg	 l	 1.761	 GoodTrial	 allStim	 ra
39	 6	 1	 right	 LineStimuli//allStim/stimNo118r3c16v3.3.jpg	 l	 1.493	 GoodTrial	 allStim	 ra
40	 6	 1	 left	 LineStimuli//allStim/stimNo104r15c2v4.3.jpg	 l	 1.691	 GoodTrial	 allStim	 ra
41	 6	 0	 x	 LineStimuli//allStim/stimNo142r0c0v3.8.jpg	 r	 1.658	 GoodTrial	 allStim	 ra
42	 6	 0	 x	 LineStimuli//allStim/stimNo157r0c0v2.8.jpg	 r	 2.213	 GoodTrial	 allStim	 ra
43	 6	 1	 right	 LineStimuli//allStim/stimNo111r9c15v2.8.jpg	 l	 1.496	 GoodTrial	 allStim	 ra
44	 6	 0	 x	 LineStimuli//allStim/stimNo144r0c0v1.5.jpg	 r	 3.519	 GoodTrial	 allStim	 ra
45	 6	 0	 x	 LineStimuli//allStim/stimNo132r0c0v1.8.jpg	 r	 1.963	 GoodTrial	 allStim	 ra
46	 6	 1	 right	 LineStimuli//allStim/stimNo117r11c17v2.8.jpg	 l	 1.518	 GoodTrial	 allStim	 ra
47	 6	 0	 x	 LineStimuli//allStim/stimNo150r0c0v4.3.jpg	 r	 1.740	 GoodTrial	 allStim	 ra
48	 6	 0	 x	 LineStimuli//allStim/stimNo146r0c0v2.8.jpg	 r	 1.643	 GoodTrial	 allStim	 ra
49	 6	 1	 right	 LineStimuli//allStim/stimNo109r2c17v2.3.jpg	 l	 1.578	 GoodTrial	 allStim	 ra
50	 6	 0	 x	 LineStimuli//allStim/stimNo148r0c0v2.3.jpg	 r	 1.540	 GoodTrial	 allStim	 ra
1	 7	 1	 right	 LineStimuli//allStim/stimNo114r8c19v2.8.jpg	 l	 1.519	 GoodTrial	 allStim	 ra
2	 7	 1	 right	 LineStimuli//allStim/stimNo101r8c14v2.3.jpg	 l	 1.489	 GoodTrial	 allStim	 ra
3	 7	 1	 right	 LineStimuli//allStim/stimNo105r7c20v3.3.jpg	 l	 1.528	 GoodTrial	 allStim	 ra
4	 7	 0	 x	 LineStimuli//allStim/stimNo157r0c0v1.5.jpg	 r	 2.280	 GoodTrial	 allStim	 ra
5	 7	 0	 x	 LineStimuli//allStim/stimNo152r0c0v4.3.jpg	 r	 1.762	 GoodTrial	 allStim	 ra
6	 7	 0	 x	 LineStimuli//allStim/stimNo150r0c0v2.8.jpg	 r	 1.699	 GoodTrial	 allStim	 ra
7	 7	 1	 left	 LineStimuli//allStim/stimNo108r15c6v2.3.jpg	 l	 1.513	 GoodTrial	 allStim	 ra
8	 7	 1	 right	 LineStimuli//allStim/stimNo84r15c20v4.3.jpg	 l	 1.705	 GoodTrial	 allStim	 ra
9	 7	 0	 x	 LineStimuli//allStim/stimNo131r0c0v1.5.jpg	 r	 2.616	 GoodTrial	 allStim	 ra
10	 7	 1	 left	 LineStimuli//allStim/stimNo110r6c7v4.3.jpg	 l	 1.479	 GoodTrial	 allStim	 ra
11	 7	 1	 left	 LineStimuli//allStim/stimNo108r3c6v3.8.jpg	 l	 1.564	 GoodTrial	 allStim	 ra
12	 7	 0	 x	 LineStimuli//allStim/stimNo124r0c0v3.8.jpg	 r	 1.921	 GoodTrial	 allStim	 ra
13	 7	 1	 left	 LineStimuli//allStim/stimNo93r9c9v4.3.jpg	 l	 1.501	 GoodTrial	 allStim	 ra
14	 7	 1	 right	 LineStimuli//allStim/stimNo85r4c15v2.8.jpg	 l	 1.511	 GoodTrial	 allStim	 ra
15	 7	 0	 x	 LineStimuli//allStim/stimNo124r0c0v1.5.jpg	 r	 3.805	 GoodTrial	 allStim	 ra
16	 7	 1	 left	 LineStimuli//allStim/stimNo116r7c3v3.8.jpg	 l	 1.497	 GoodTrial	 allStim	 ra
17	 7	 0	 x	 LineStimuli//allStim/stimNo135r0c0v3.3.jpg	 r	 1.805	 GoodTrial	 allStim	 ra
18	 7	 0	 x	 LineStimuli//allStim/stimNo144r0c0v3.3.jpg	 r	 1.814	 GoodTrial	 allStim	 ra
19	 7	 1	 left	 LineStimuli//allStim/stimNo85r6c4v3.3.jpg	 l	 1.490	 GoodTrial	 allStim	 ra
20	 7	 1	 right	 LineStimuli//allStim/stimNo84r6c16v3.3.jpg	 l	 2.133	 GoodTrial	 allStim	 ra
21	 7	 0	 x	 LineStimuli//allStim/stimNo147r0c0v1.5.jpg	 r	 3.428	 GoodTrial	 allStim	 ra
22	 7	 0	 x	 LineStimuli//allStim/stimNo128r0c0v1.5.jpg	 r	 3.656	 GoodTrial	 allStim	 ra
23	 7	 1	 left	 LineStimuli//allStim/stimNo83r12c7v1.5.jpg	 r	 2.360	 GoodTrial	 allStim	 ra
24	 7	 1	 right	 LineStimuli//allStim/stimNo105r14c14v2.3.jpg	 l	 2.561	 GoodTrial	 allStim	 ra
25	 7	 0	 x	 LineStimuli//allStim/stimNo121r0c0v3.8.jpg	 r	 1.659	 GoodTrial	 allStim	 ra
26	 7	 0	 x	 LineStimuli//allStim/stimNo159r0c0v1.8.jpg	 r	 2.104	 GoodTrial	 allStim	 ra
27	 7	 0	 x	 LineStimuli//allStim/stimNo140r0c0v1.5.jpg	 r	 2.481	 GoodTrial	 allStim	 ra
28	 7	 0	 x	 LineStimuli//allStim/stimNo123r0c0v2.8.jpg	 r	 1.895	 GoodTrial	 allStim	 ra
29	 7	 0	 x	 LineStimuli//allStim/stimNo160r0c0v4.3.jpg	 r	 1.748	 GoodTrial	 allStim	 ra
30	 7	 1	 right	 LineStimuli//allStim/stimNo83r6c13v1.8.jpg	 l	 1.620	 GoodTrial	 allStim	 ra
31	 7	 0	 x	 LineStimuli//allStim/stimNo142r0c0v1.5.jpg	 r	 2.534	 GoodTrial	 allStim	 ra
32	 7	 0	 x	 LineStimuli//allStim/stimNo157r0c0v4.3.jpg	 r	 1.807	 GoodTrial	 allStim	 ra
33	 7	 0	 x	 LineStimuli//allStim/stimNo138r0c0v3.8.jpg	 r	 1.801	 GoodTrial	 allStim	 ra
34	 7	 1	 left	 LineStimuli//allStim/stimNo83r12c4v2.8.jpg	 l	 1.742	 GoodTrial	 allStim	 ra
35	 7	 0	 x	 LineStimuli//allStim/stimNo160r0c0v1.8.jpg	 r	 2.759	 GoodTrial	 allStim	 ra
36	 7	 1	 right	 LineStimuli//allStim/stimNo99r9c18v2.8.jpg	 l	 1.731	 GoodTrial	 allStim	 ra
37	 7	 0	 x	 LineStimuli//allStim/stimNo128r0c0v3.3.jpg	 r	 1.583	 GoodTrial	 allStim	 ra
38	 7	 0	 x	 LineStimuli//allStim/stimNo149r0c0v3.3.jpg	 r	 1.743	 GoodTrial	 allStim	 ra
39	 7	 0	 x	 LineStimuli//allStim/stimNo148r0c0v1.8.jpg	 r	 2.198	 GoodTrial	 allStim	 ra
40	 7	 1	 left	 LineStimuli//allStim/stimNo113r14c9v3.8.jpg	 l	 1.562	 GoodTrial	 allStim	 ra
41	 7	 1	 left	 LineStimuli//allStim/stimNo98r15c2v2.8.jpg	 l	 1.830	 GoodTrial	 allStim	 ra
42	 7	 1	 left	 LineStimuli//allStim/stimNo115r5c9v1.8.jpg	 l	 2.289	 GoodTrial	 allStim	 ra
43	 7	 0	 x	 LineStimuli//allStim/stimNo159r0c0v3.8.jpg	 r	 1.623	 GoodTrial	 allStim	 ra
44	 7	 1	 left	 LineStimuli//allStim/stimNo106r8c2v4.3.jpg	 l	 1.626	 GoodTrial	 allStim	 ra
45	 7	 0	 x	 LineStimuli//allStim/stimNo155r0c0v1.8.jpg	 r	 1.972	 GoodTrial	 allStim	 ra
46	 7	 0	 x	 LineStimuli//allStim/stimNo128r0c0v2.3.jpg	 r	 1.730	 GoodTrial	 allStim	 ra
47	 7	 1	 left	 LineStimuli//allStim/stimNo106r9c9v3.8.jpg	 l	 1.496	 GoodTrial	 allStim	 ra
48	 7	 1	 right	 LineStimuli//allStim/stimNo112r6c15v1.8.jpg	 l	 1.801	 GoodTrial	 allStim	 ra
49	 7	 0	 x	 LineStimuli//allStim/stimNo152r0c0v1.8.jpg	 r	 2.153	 GoodTrial	 allStim	 ra
50	 7	 0	 x	 LineStimuli//allStim/stimNo134r0c0v4.3.jpg	 r	 1.626	 GoodTrial	 allStim	 ra
