Trial	Block	Target_pr	Target_side	Name	Key	RT	Message	Block_Type	Condition
1	 1	 1	 left	 LineStimuli//allStim/stimNo93r3c5v3.3.jpg	 l	 9.072	 GoodTrial	 allStim	 ra
2	 1	 1	 right	 LineStimuli//allStim/stimNo120r8c18v4.3.jpg	 l	 6.190	 GoodTrial	 allStim	 ra
3	 1	 1	 right	 LineStimuli//allStim/stimNo96r4c19v4.3.jpg	 l	 3.291	 GoodTrial	 allStim	 ra
4	 1	 0	 x	 LineStimuli//allStim/stimNo159r0c0v3.8.jpg	 r	 7.212	 GoodTrial	 allStim	 ra
5	 1	 0	 x	 LineStimuli//allStim/stimNo138r0c0v3.8.jpg	 r	 9.953	 GoodTrial	 allStim	 ra
6	 1	 0	 x	 LineStimuli//allStim/stimNo125r0c0v1.5.jpg	 r	 13.779	 GoodTrial	 allStim	 ra
7	 1	 0	 x	 LineStimuli//allStim/stimNo134r0c0v1.5.jpg	 r	 15.778	 GoodTrial	 allStim	 ra
8	 1	 0	 x	 LineStimuli//allStim/stimNo149r0c0v1.5.jpg	 r	 26.535	 GoodTrial	 allStim	 ra
9	 1	 0	 x	 LineStimuli//allStim/stimNo141r0c0v2.8.jpg	 r	 9.263	 GoodTrial	 allStim	 ra
10	 1	 1	 left	 LineStimuli//allStim/stimNo103r15c10v1.8.jpg	 r	 13.141	 GoodTrial	 allStim	 ra
11	 1	 1	 right	 LineStimuli//allStim/stimNo109r6c18v2.8.jpg	 l	 5.483	 GoodTrial	 allStim	 ra
12	 1	 1	 right	 LineStimuli//allStim/stimNo84r6c16v3.3.jpg	 l	 2.665	 GoodTrial	 allStim	 ra
13	 1	 1	 right	 LineStimuli//allStim/stimNo107r11c15v2.3.jpg	 l	 5.134	 GoodTrial	 allStim	 ra
14	 1	 1	 right	 LineStimuli//allStim/stimNo95r5c21v3.8.jpg	 x	 2.976	 GoodTrial	 allStim	 ra
15	 1	 0	 x	 LineStimuli//allStim/stimNo126r0c0v2.8.jpg	 r	 11.133	 GoodTrial	 allStim	 ra
16	 1	 1	 right	 LineStimuli//allStim/stimNo103r13c17v1.5.jpg	 r	 11.112	 GoodTrial	 allStim	 ra
17	 1	 0	 x	 LineStimuli//allStim/stimNo150r0c0v2.3.jpg	 r	 18.737	 GoodTrial	 allStim	 ra
18	 1	 1	 right	 LineStimuli//allStim/stimNo92r10c17v2.3.jpg	 l	 4.048	 GoodTrial	 allStim	 ra
19	 1	 0	 x	 LineStimuli//allStim/stimNo151r0c0v3.8.jpg	 r	 20.911	 GoodTrial	 allStim	 ra
20	 1	 1	 left	 LineStimuli//allStim/stimNo83r8c3v3.3.jpg	 l	 5.450	 GoodTrial	 allStim	 ra
21	 1	 1	 right	 LineStimuli//allStim/stimNo118r11c13v4.3.jpg	 x	 0.352	 EARLY_RESPONSE	 allStim	 ra
22	 1	 1	 right	 LineStimuli//allStim/stimNo105r14c14v2.3.jpg	 l	 4.862	 GoodTrial	 allStim	 ra
23	 1	 1	 right	 LineStimuli//allStim/stimNo94r6c17v3.8.jpg	 l	 2.811	 GoodTrial	 allStim	 ra
24	 1	 1	 right	 LineStimuli//allStim/stimNo101r5c20v1.5.jpg	 l	 11.059	 GoodTrial	 allStim	 ra
25	 1	 1	 left	 LineStimuli//allStim/stimNo104r12c8v3.8.jpg	 l	 6.789	 GoodTrial	 allStim	 ra
26	 1	 0	 x	 LineStimuli//allStim/stimNo139r0c0v1.8.jpg	 r	 10.432	 GoodTrial	 allStim	 ra
27	 1	 1	 right	 LineStimuli//allStim/stimNo102r10c19v4.3.jpg	 l	 2.668	 GoodTrial	 allStim	 ra
28	 1	 1	 right	 LineStimuli//allStim/stimNo99r14c18v4.3.jpg	 l	 3.068	 GoodTrial	 allStim	 ra
29	 1	 0	 x	 LineStimuli//allStim/stimNo157r0c0v3.8.jpg	 r	 15.950	 GoodTrial	 allStim	 ra
30	 1	 0	 x	 LineStimuli//allStim/stimNo144r0c0v3.3.jpg	 r	 14.482	 GoodTrial	 allStim	 ra
31	 1	 0	 x	 LineStimuli//allStim/stimNo128r0c0v2.8.jpg	 r	 11.912	 GoodTrial	 allStim	 ra
32	 1	 0	 x	 LineStimuli//allStim/stimNo127r0c0v3.8.jpg	 r	 6.837	 GoodTrial	 allStim	 ra
33	 1	 0	 x	 LineStimuli//allStim/stimNo135r0c0v3.8.jpg	 r	 8.850	 GoodTrial	 allStim	 ra
34	 1	 0	 x	 LineStimuli//allStim/stimNo133r0c0v2.3.jpg	 r	 13.035	 GoodTrial	 allStim	 ra
35	 1	 0	 x	 LineStimuli//allStim/stimNo160r0c0v2.3.jpg	 r	 8.611	 GoodTrial	 allStim	 ra
36	 1	 1	 left	 LineStimuli//allStim/stimNo88r15c3v2.8.jpg	 r	 6.098	 GoodTrial	 allStim	 ra
37	 1	 1	 left	 LineStimuli//allStim/stimNo109r11c8v3.8.jpg	 l	 3.072	 GoodTrial	 allStim	 ra
38	 1	 0	 x	 LineStimuli//allStim/stimNo126r0c0v1.8.jpg	 r	 9.689	 GoodTrial	 allStim	 ra
39	 1	 1	 right	 LineStimuli//allStim/stimNo117r11c17v2.8.jpg	 l	 2.753	 GoodTrial	 allStim	 ra
40	 1	 0	 x	 LineStimuli//allStim/stimNo127r0c0v4.3.jpg	 r	 4.857	 GoodTrial	 allStim	 ra
41	 1	 0	 x	 LineStimuli//allStim/stimNo132r0c0v2.8.jpg	 r	 8.631	 GoodTrial	 allStim	 ra
42	 1	 1	 left	 LineStimuli//allStim/stimNo83r14c4v2.3.jpg	 l	 2.905	 GoodTrial	 allStim	 ra
43	 1	 1	 right	 LineStimuli//allStim/stimNo91r10c16v3.8.jpg	 l	 4.182	 GoodTrial	 allStim	 ra
44	 1	 1	 right	 LineStimuli//allStim/stimNo90r8c17v3.8.jpg	 l	 3.193	 GoodTrial	 allStim	 ra
45	 1	 0	 x	 LineStimuli//allStim/stimNo144r0c0v4.3.jpg	 r	 5.793	 GoodTrial	 allStim	 ra
46	 1	 0	 x	 LineStimuli//allStim/stimNo123r0c0v1.5.jpg	 l	 2.276	 GoodTrial	 allStim	 ra
47	 1	 0	 x	 LineStimuli//allStim/stimNo140r0c0v3.8.jpg	 l	 2.485	 GoodTrial	 allStim	 ra
48	 1	 0	 x	 LineStimuli//allStim/stimNo138r0c0v1.8.jpg	 l	 3.427	 GoodTrial	 allStim	 ra
49	 1	 0	 x	 LineStimuli//allStim/stimNo147r0c0v2.8.jpg	 r	 12.329	 GoodTrial	 allStim	 ra
50	 1	 1	 left	 LineStimuli//allStim/stimNo93r9c9v4.3.jpg	 l	 2.136	 GoodTrial	 allStim	 ra
1	 2	 1	 right	 LineStimuli//allStim/stimNo107r9c18v3.8.jpg	 l	 3.704	 GoodTrial	 allStim	 ra
2	 2	 1	 right	 LineStimuli//allStim/stimNo94r6c17v3.8.jpg	 l	 2.317	 GoodTrial	 allStim	 ra
3	 2	 0	 x	 LineStimuli//allStim/stimNo144r0c0v2.8.jpg	 r	 7.354	 GoodTrial	 allStim	 ra
4	 2	 1	 left	 LineStimuli//allStim/stimNo94r8c9v2.3.jpg	 l	 3.460	 GoodTrial	 allStim	 ra
5	 2	 0	 x	 LineStimuli//allStim/stimNo134r0c0v1.8.jpg	 r	 8.648	 GoodTrial	 allStim	 ra
6	 2	 0	 x	 LineStimuli//allStim/stimNo126r0c0v2.3.jpg	 r	 9.138	 GoodTrial	 allStim	 ra
7	 2	 0	 x	 LineStimuli//allStim/stimNo141r0c0v2.8.jpg	 r	 5.760	 GoodTrial	 allStim	 ra
8	 2	 1	 right	 LineStimuli//allStim/stimNo81r8c14v2.8.jpg	 l	 2.284	 GoodTrial	 allStim	 ra
9	 2	 1	 left	 LineStimuli//allStim/stimNo96r6c9v2.8.jpg	 l	 2.209	 GoodTrial	 allStim	 ra
10	 2	 1	 left	 LineStimuli//allStim/stimNo98r15c2v2.8.jpg	 l	 2.771	 GoodTrial	 allStim	 ra
11	 2	 1	 left	 LineStimuli//allStim/stimNo97r15c6v1.5.jpg	 r	 3.567	 GoodTrial	 allStim	 ra
12	 2	 0	 x	 LineStimuli//allStim/stimNo156r0c0v3.3.jpg	 l	 3.404	 GoodTrial	 allStim	 ra
13	 2	 0	 x	 LineStimuli//allStim/stimNo129r0c0v1.5.jpg	 l	 8.376	 GoodTrial	 allStim	 ra
14	 2	 1	 right	 LineStimuli//allStim/stimNo102r6c18v2.3.jpg	 l	 2.732	 GoodTrial	 allStim	 ra
15	 2	 0	 x	 LineStimuli//allStim/stimNo138r0c0v3.8.jpg	 l	 9.151	 GoodTrial	 allStim	 ra
16	 2	 0	 x	 LineStimuli//allStim/stimNo133r0c0v4.3.jpg	 r	 4.384	 GoodTrial	 allStim	 ra
17	 2	 1	 right	 LineStimuli//allStim/stimNo91r11c20v2.3.jpg	 l	 2.813	 GoodTrial	 allStim	 ra
18	 2	 1	 left	 LineStimuli//allStim/stimNo110r7c3v1.5.jpg	 r	 7.907	 GoodTrial	 allStim	 ra
19	 2	 0	 x	 LineStimuli//allStim/stimNo158r0c0v2.3.jpg	 r	 5.058	 GoodTrial	 allStim	 ra
20	 2	 0	 x	 LineStimuli//allStim/stimNo150r0c0v1.5.jpg	 l	 12.326	 GoodTrial	 allStim	 ra
21	 2	 1	 left	 LineStimuli//allStim/stimNo86r14c4v1.8.jpg	 l	 5.853	 GoodTrial	 allStim	 ra
22	 2	 0	 x	 LineStimuli//allStim/stimNo149r0c0v3.8.jpg	 r	 6.793	 GoodTrial	 allStim	 ra
23	 2	 1	 left	 LineStimuli//allStim/stimNo115r3c4v3.3.jpg	 l	 2.515	 GoodTrial	 allStim	 ra
24	 2	 0	 x	 LineStimuli//allStim/stimNo155r0c0v2.3.jpg	 r	 4.834	 GoodTrial	 allStim	 ra
25	 2	 1	 right	 LineStimuli//allStim/stimNo84r9c19v3.8.jpg	 l	 2.206	 GoodTrial	 allStim	 ra
26	 2	 1	 left	 LineStimuli//allStim/stimNo110r7c9v3.8.jpg	 l	 1.980	 GoodTrial	 allStim	 ra
27	 2	 0	 x	 LineStimuli//allStim/stimNo132r0c0v1.5.jpg	 r	 4.445	 GoodTrial	 allStim	 ra
28	 2	 0	 x	 LineStimuli//allStim/stimNo122r0c0v2.8.jpg	 r	 4.182	 GoodTrial	 allStim	 ra
29	 2	 1	 left	 LineStimuli//allStim/stimNo93r8c2v3.8.jpg	 l	 2.212	 GoodTrial	 allStim	 ra
30	 2	 0	 x	 LineStimuli//allStim/stimNo138r0c0v1.5.jpg	 r	 2.893	 GoodTrial	 allStim	 ra
31	 2	 0	 x	 LineStimuli//allStim/stimNo137r0c0v1.8.jpg	 r	 5.536	 GoodTrial	 allStim	 ra
32	 2	 1	 right	 LineStimuli//allStim/stimNo87r15c13v3.3.jpg	 l	 2.591	 GoodTrial	 allStim	 ra
33	 2	 0	 x	 LineStimuli//allStim/stimNo141r0c0v1.5.jpg	 r	 8.514	 GoodTrial	 allStim	 ra
34	 2	 1	 left	 LineStimuli//allStim/stimNo87r11c8v2.8.jpg	 l	 5.319	 GoodTrial	 allStim	 ra
35	 2	 1	 left	 LineStimuli//allStim/stimNo98r15c5v1.8.jpg	 r	 8.314	 GoodTrial	 allStim	 ra
36	 2	 0	 x	 LineStimuli//allStim/stimNo127r0c0v4.3.jpg	 r	 5.311	 GoodTrial	 allStim	 ra
37	 2	 0	 x	 LineStimuli//allStim/stimNo146r0c0v1.5.jpg	 r	 6.308	 GoodTrial	 allStim	 ra
38	 2	 0	 x	 LineStimuli//allStim/stimNo145r0c0v2.8.jpg	 r	 4.896	 GoodTrial	 allStim	 ra
39	 2	 0	 x	 LineStimuli//allStim/stimNo124r0c0v3.3.jpg	 r	 8.920	 GoodTrial	 allStim	 ra
40	 2	 0	 x	 LineStimuli//allStim/stimNo136r0c0v2.3.jpg	 r	 4.313	 GoodTrial	 allStim	 ra
41	 2	 0	 x	 LineStimuli//allStim/stimNo139r0c0v2.3.jpg	 r	 7.662	 GoodTrial	 allStim	 ra
42	 2	 1	 right	 LineStimuli//allStim/stimNo98r12c21v2.3.jpg	 l	 3.291	 GoodTrial	 allStim	 ra
43	 2	 1	 left	 LineStimuli//allStim/stimNo90r10c4v4.3.jpg	 l	 2.404	 GoodTrial	 allStim	 ra
44	 2	 0	 x	 LineStimuli//allStim/stimNo137r0c0v3.3.jpg	 r	 7.170	 GoodTrial	 allStim	 ra
45	 2	 0	 x	 LineStimuli//allStim/stimNo137r0c0v3.8.jpg	 r	 5.428	 GoodTrial	 allStim	 ra
46	 2	 1	 right	 LineStimuli//allStim/stimNo115r14c18v1.5.jpg	 r	 4.821	 GoodTrial	 allStim	 ra
47	 2	 1	 right	 LineStimuli//allStim/stimNo120r8c14v3.3.jpg	 l	 3.161	 GoodTrial	 allStim	 ra
48	 2	 1	 left	 LineStimuli//allStim/stimNo83r4c2v4.3.jpg	 l	 2.346	 GoodTrial	 allStim	 ra
49	 2	 0	 x	 LineStimuli//allStim/stimNo142r0c0v1.5.jpg	 r	 6.043	 GoodTrial	 allStim	 ra
50	 2	 0	 x	 LineStimuli//allStim/stimNo143r0c0v2.8.jpg	 r	 8.522	 GoodTrial	 allStim	 ra
1	 3	 1	 left	 LineStimuli//allStim/stimNo120r5c3v3.8.jpg	 l	 1.855	 GoodTrial	 allStim	 ra
2	 3	 0	 x	 LineStimuli//allStim/stimNo128r0c0v3.8.jpg	 r	 5.496	 GoodTrial	 allStim	 ra
3	 3	 1	 right	 LineStimuli//allStim/stimNo120r8c14v3.3.jpg	 l	 2.082	 GoodTrial	 allStim	 ra
4	 3	 0	 x	 LineStimuli//allStim/stimNo157r0c0v3.8.jpg	 r	 9.450	 GoodTrial	 allStim	 ra
5	 3	 1	 left	 LineStimuli//allStim/stimNo106r3c7v1.5.jpg	 r	 5.645	 GoodTrial	 allStim	 ra
6	 3	 1	 right	 LineStimuli//allStim/stimNo93r4c16v2.3.jpg	 l	 4.115	 GoodTrial	 allStim	 ra
7	 3	 1	 right	 LineStimuli//allStim/stimNo82r9c21v3.8.jpg	 l	 2.491	 GoodTrial	 allStim	 ra
8	 3	 0	 x	 LineStimuli//allStim/stimNo155r0c0v4.3.jpg	 l	 10.644	 GoodTrial	 allStim	 ra
9	 3	 0	 x	 LineStimuli//allStim/stimNo123r0c0v4.3.jpg	 r	 5.358	 GoodTrial	 allStim	 ra
10	 3	 0	 x	 LineStimuli//allStim/stimNo158r0c0v2.8.jpg	 r	 4.480	 GoodTrial	 allStim	 ra
11	 3	 1	 left	 LineStimuli//allStim/stimNo96r3c3v2.3.jpg	 l	 9.013	 GoodTrial	 allStim	 ra
12	 3	 0	 x	 LineStimuli//allStim/stimNo157r0c0v1.8.jpg	 r	 6.847	 GoodTrial	 allStim	 ra
13	 3	 1	 left	 LineStimuli//allStim/stimNo117r2c5v3.3.jpg	 l	 2.959	 GoodTrial	 allStim	 ra
14	 3	 0	 x	 LineStimuli//allStim/stimNo124r0c0v3.8.jpg	 r	 4.612	 GoodTrial	 allStim	 ra
15	 3	 1	 left	 LineStimuli//allStim/stimNo90r2c9v3.3.jpg	 l	 2.900	 GoodTrial	 allStim	 ra
16	 3	 1	 left	 LineStimuli//allStim/stimNo93r9c9v4.3.jpg	 l	 4.037	 GoodTrial	 allStim	 ra
17	 3	 1	 left	 LineStimuli//allStim/stimNo111r10c9v4.3.jpg	 l	 1.794	 GoodTrial	 allStim	 ra
18	 3	 1	 right	 LineStimuli//allStim/stimNo87r6c13v3.8.jpg	 l	 1.989	 GoodTrial	 allStim	 ra
19	 3	 0	 x	 LineStimuli//allStim/stimNo141r0c0v4.3.jpg	 r	 4.729	 GoodTrial	 allStim	 ra
20	 3	 0	 x	 LineStimuli//allStim/stimNo140r0c0v4.3.jpg	 r	 6.641	 GoodTrial	 allStim	 ra
21	 3	 0	 x	 LineStimuli//allStim/stimNo151r0c0v2.8.jpg	 r	 6.663	 GoodTrial	 allStim	 ra
22	 3	 0	 x	 LineStimuli//allStim/stimNo130r0c0v3.8.jpg	 r	 4.606	 GoodTrial	 allStim	 ra
23	 3	 1	 left	 LineStimuli//allStim/stimNo117r11c8v2.3.jpg	 l	 3.896	 GoodTrial	 allStim	 ra
24	 3	 1	 left	 LineStimuli//allStim/stimNo102r7c6v1.5.jpg	 r	 12.745	 GoodTrial	 allStim	 ra
25	 3	 1	 left	 LineStimuli//allStim/stimNo103r11c7v3.8.jpg	 l	 2.008	 GoodTrial	 allStim	 ra
26	 3	 1	 right	 LineStimuli//allStim/stimNo90r3c15v1.5.jpg	 r	 11.138	 GoodTrial	 allStim	 ra
27	 3	 1	 right	 LineStimuli//allStim/stimNo111r11c21v2.3.jpg	 r	 9.141	 GoodTrial	 allStim	 ra
28	 3	 1	 left	 LineStimuli//allStim/stimNo119r15c7v3.3.jpg	 l	 2.378	 GoodTrial	 allStim	 ra
29	 3	 0	 x	 LineStimuli//allStim/stimNo132r0c0v1.5.jpg	 r	 12.490	 GoodTrial	 allStim	 ra
30	 3	 1	 left	 LineStimuli//allStim/stimNo109r11c8v3.8.jpg	 l	 2.011	 GoodTrial	 allStim	 ra
31	 3	 0	 x	 LineStimuli//allStim/stimNo126r0c0v3.3.jpg	 r	 9.842	 GoodTrial	 allStim	 ra
32	 3	 1	 right	 LineStimuli//allStim/stimNo102r6c18v2.3.jpg	 l	 16.471	 GoodTrial	 allStim	 ra
33	 3	 0	 x	 LineStimuli//allStim/stimNo139r0c0v3.3.jpg	 r	 6.018	 GoodTrial	 allStim	 ra
34	 3	 0	 x	 LineStimuli//allStim/stimNo157r0c0v3.3.jpg	 r	 10.364	 GoodTrial	 allStim	 ra
35	 3	 0	 x	 LineStimuli//allStim/stimNo155r0c0v1.5.jpg	 r	 6.287	 GoodTrial	 allStim	 ra
36	 3	 0	 x	 LineStimuli//allStim/stimNo121r0c0v3.3.jpg	 r	 9.367	 GoodTrial	 allStim	 ra
37	 3	 0	 x	 LineStimuli//allStim/stimNo157r0c0v1.5.jpg	 r	 17.252	 GoodTrial	 allStim	 ra
38	 3	 1	 left	 LineStimuli//allStim/stimNo88r10c3v4.3.jpg	 l	 2.225	 GoodTrial	 allStim	 ra
39	 3	 1	 left	 LineStimuli//allStim/stimNo83r14c4v2.3.jpg	 r	 4.931	 GoodTrial	 allStim	 ra
40	 3	 0	 x	 LineStimuli//allStim/stimNo150r0c0v4.3.jpg	 r	 3.873	 GoodTrial	 allStim	 ra
41	 3	 1	 left	 LineStimuli//allStim/stimNo113r11c7v4.3.jpg	 l	 1.811	 GoodTrial	 allStim	 ra
42	 3	 1	 right	 LineStimuli//allStim/stimNo120r4c17v2.3.jpg	 l	 2.658	 GoodTrial	 allStim	 ra
43	 3	 0	 x	 LineStimuli//allStim/stimNo147r0c0v4.3.jpg	 r	 8.320	 GoodTrial	 allStim	 ra
44	 3	 0	 x	 LineStimuli//allStim/stimNo139r0c0v2.8.jpg	 r	 6.532	 GoodTrial	 allStim	 ra
45	 3	 1	 left	 LineStimuli//allStim/stimNo106r8c2v4.3.jpg	 l	 2.006	 GoodTrial	 allStim	 ra
46	 3	 0	 x	 LineStimuli//allStim/stimNo140r0c0v2.3.jpg	 r	 6.071	 GoodTrial	 allStim	 ra
47	 3	 0	 x	 LineStimuli//allStim/stimNo156r0c0v2.3.jpg	 r	 5.944	 GoodTrial	 allStim	 ra
48	 3	 1	 right	 LineStimuli//allStim/stimNo118r11c13v4.3.jpg	 l	 2.559	 GoodTrial	 allStim	 ra
49	 3	 0	 x	 LineStimuli//allStim/stimNo157r0c0v2.3.jpg	 r	 16.248	 GoodTrial	 allStim	 ra
50	 3	 0	 x	 LineStimuli//allStim/stimNo149r0c0v2.8.jpg	 r	 4.278	 GoodTrial	 allStim	 ra
1	 4	 0	 x	 LineStimuli//allStim/stimNo139r0c0v1.8.jpg	 r	 8.466	 GoodTrial	 allStim	 ra
2	 4	 1	 right	 LineStimuli//allStim/stimNo93r4c16v2.3.jpg	 l	 2.469	 GoodTrial	 allStim	 ra
3	 4	 1	 right	 LineStimuli//allStim/stimNo101r7c16v3.3.jpg	 l	 2.842	 GoodTrial	 allStim	 ra
4	 4	 1	 left	 LineStimuli//allStim/stimNo113r4c4v1.5.jpg	 l	 3.276	 GoodTrial	 allStim	 ra
5	 4	 0	 x	 LineStimuli//allStim/stimNo153r0c0v1.8.jpg	 r	 8.130	 GoodTrial	 allStim	 ra
6	 4	 0	 x	 LineStimuli//allStim/stimNo147r0c0v1.8.jpg	 r	 8.377	 GoodTrial	 allStim	 ra
7	 4	 1	 right	 LineStimuli//allStim/stimNo81r8c14v2.8.jpg	 l	 3.296	 GoodTrial	 allStim	 ra
8	 4	 1	 left	 LineStimuli//allStim/stimNo83r12c4v2.8.jpg	 l	 3.845	 GoodTrial	 allStim	 ra
9	 4	 1	 right	 LineStimuli//allStim/stimNo90r14c21v2.3.jpg	 l	 3.541	 GoodTrial	 allStim	 ra
10	 4	 0	 x	 LineStimuli//allStim/stimNo129r0c0v2.8.jpg	 r	 10.467	 GoodTrial	 allStim	 ra
11	 4	 0	 x	 LineStimuli//allStim/stimNo132r0c0v1.5.jpg	 r	 9.744	 GoodTrial	 allStim	 ra
12	 4	 1	 left	 LineStimuli//allStim/stimNo116r4c7v1.8.jpg	 l	 2.878	 GoodTrial	 allStim	 ra
13	 4	 1	 left	 LineStimuli//allStim/stimNo86r7c3v4.3.jpg	 l	 2.155	 GoodTrial	 allStim	 ra
14	 4	 1	 left	 LineStimuli//allStim/stimNo82r4c6v2.8.jpg	 l	 2.392	 GoodTrial	 allStim	 ra
15	 4	 0	 x	 LineStimuli//allStim/stimNo142r0c0v3.8.jpg	 r	 4.138	 GoodTrial	 allStim	 ra
16	 4	 1	 right	 LineStimuli//allStim/stimNo84r9c19v3.8.jpg	 l	 2.181	 GoodTrial	 allStim	 ra
17	 4	 0	 x	 LineStimuli//allStim/stimNo126r0c0v1.5.jpg	 r	 13.555	 GoodTrial	 allStim	 ra
18	 4	 0	 x	 LineStimuli//allStim/stimNo141r0c0v1.8.jpg	 r	 10.674	 GoodTrial	 allStim	 ra
19	 4	 1	 left	 LineStimuli//allStim/stimNo97r15c9v3.8.jpg	 l	 2.103	 GoodTrial	 allStim	 ra
20	 4	 0	 x	 LineStimuli//allStim/stimNo128r0c0v4.3.jpg	 r	 3.512	 GoodTrial	 allStim	 ra
21	 4	 1	 left	 LineStimuli//allStim/stimNo86r14c4v1.8.jpg	 r	 10.285	 GoodTrial	 allStim	 ra
22	 4	 1	 right	 LineStimuli//allStim/stimNo117r6c17v3.8.jpg	 l	 1.757	 GoodTrial	 allStim	 ra
23	 4	 0	 x	 LineStimuli//allStim/stimNo136r0c0v2.3.jpg	 r	 5.321	 GoodTrial	 allStim	 ra
24	 4	 0	 x	 LineStimuli//allStim/stimNo131r0c0v3.8.jpg	 r	 3.030	 GoodTrial	 allStim	 ra
25	 4	 0	 x	 LineStimuli//allStim/stimNo125r0c0v3.3.jpg	 r	 5.182	 GoodTrial	 allStim	 ra
26	 4	 0	 x	 LineStimuli//allStim/stimNo148r0c0v3.3.jpg	 r	 8.597	 GoodTrial	 allStim	 ra
27	 4	 0	 x	 LineStimuli//allStim/stimNo159r0c0v1.8.jpg	 r	 6.429	 GoodTrial	 allStim	 ra
28	 4	 0	 x	 LineStimuli//allStim/stimNo127r0c0v3.8.jpg	 r	 4.846	 GoodTrial	 allStim	 ra
29	 4	 0	 x	 LineStimuli//allStim/stimNo137r0c0v2.3.jpg	 r	 9.775	 GoodTrial	 allStim	 ra
30	 4	 0	 x	 LineStimuli//allStim/stimNo154r0c0v1.8.jpg	 r	 6.272	 GoodTrial	 allStim	 ra
31	 4	 1	 left	 LineStimuli//allStim/stimNo104r12c8v3.8.jpg	 l	 1.959	 GoodTrial	 allStim	 ra
32	 4	 1	 right	 LineStimuli//allStim/stimNo112r6c15v1.8.jpg	 l	 3.646	 GoodTrial	 allStim	 ra
33	 4	 1	 right	 LineStimuli//allStim/stimNo89r5c21v3.3.jpg	 l	 2.053	 GoodTrial	 allStim	 ra
34	 4	 0	 x	 LineStimuli//allStim/stimNo141r0c0v4.3.jpg	 r	 5.621	 GoodTrial	 allStim	 ra
35	 4	 0	 x	 LineStimuli//allStim/stimNo146r0c0v1.8.jpg	 r	 4.379	 GoodTrial	 allStim	 ra
36	 4	 1	 right	 LineStimuli//allStim/stimNo91r9c13v4.3.jpg	 l	 2.688	 GoodTrial	 allStim	 ra
37	 4	 0	 x	 LineStimuli//allStim/stimNo122r0c0v3.3.jpg	 r	 6.463	 GoodTrial	 allStim	 ra
38	 4	 1	 left	 LineStimuli//allStim/stimNo102r7c6v1.5.jpg	 r	 3.632	 GoodTrial	 allStim	 ra
39	 4	 1	 right	 LineStimuli//allStim/stimNo85r4c15v2.8.jpg	 l	 1.932	 GoodTrial	 allStim	 ra
40	 4	 1	 right	 LineStimuli//allStim/stimNo81r3c21v3.8.jpg	 l	 1.899	 GoodTrial	 allStim	 ra
41	 4	 0	 x	 LineStimuli//allStim/stimNo151r0c0v1.5.jpg	 r	 14.428	 GoodTrial	 allStim	 ra
42	 4	 1	 right	 LineStimuli//allStim/stimNo119r3c21v1.8.jpg	 r	 11.725	 GoodTrial	 allStim	 ra
43	 4	 0	 x	 LineStimuli//allStim/stimNo157r0c0v2.3.jpg	 r	 2.540	 GoodTrial	 allStim	 ra
44	 4	 1	 left	 LineStimuli//allStim/stimNo81r15c8v3.3.jpg	 l	 1.920	 GoodTrial	 allStim	 ra
45	 4	 0	 x	 LineStimuli//allStim/stimNo125r0c0v2.3.jpg	 x	 3.825	 GoodTrial	 allStim	 ra
46	 4	 1	 right	 LineStimuli//allStim/stimNo118r4c17v2.3.jpg	 l	 3.914	 GoodTrial	 allStim	 ra
47	 4	 0	 x	 LineStimuli//allStim/stimNo132r0c0v3.3.jpg	 r	 5.007	 GoodTrial	 allStim	 ra
48	 4	 1	 left	 LineStimuli//allStim/stimNo87r12c5v1.5.jpg	 r	 6.123	 GoodTrial	 allStim	 ra
49	 4	 0	 x	 LineStimuli//allStim/stimNo142r0c0v2.3.jpg	 r	 4.431	 GoodTrial	 allStim	 ra
50	 4	 0	 x	 LineStimuli//allStim/stimNo138r0c0v3.3.jpg	 r	 5.105	 GoodTrial	 allStim	 ra
1	 5	 1	 left	 LineStimuli//allStim/stimNo85r2c5v1.5.jpg	 r	 7.218	 GoodTrial	 allStim	 ra
2	 5	 1	 right	 LineStimuli//allStim/stimNo120r8c20v2.8.jpg	 l	 2.160	 GoodTrial	 allStim	 ra
3	 5	 0	 x	 LineStimuli//allStim/stimNo160r0c0v4.3.jpg	 r	 7.447	 GoodTrial	 allStim	 ra
4	 5	 1	 right	 LineStimuli//allStim/stimNo98r4c21v3.3.jpg	 l	 2.164	 GoodTrial	 allStim	 ra
5	 5	 1	 right	 LineStimuli//allStim/stimNo117r10c21v4.3.jpg	 l	 1.914	 GoodTrial	 allStim	 ra
6	 5	 0	 x	 LineStimuli//allStim/stimNo146r0c0v2.8.jpg	 r	 4.556	 GoodTrial	 allStim	 ra
7	 5	 0	 x	 LineStimuli//allStim/stimNo150r0c0v2.3.jpg	 r	 6.137	 GoodTrial	 allStim	 ra
8	 5	 0	 x	 LineStimuli//allStim/stimNo133r0c0v2.8.jpg	 r	 4.625	 GoodTrial	 allStim	 ra
9	 5	 0	 x	 LineStimuli//allStim/stimNo121r0c0v1.5.jpg	 r	 9.012	 GoodTrial	 allStim	 ra
10	 5	 0	 x	 LineStimuli//allStim/stimNo147r0c0v1.8.jpg	 r	 7.358	 GoodTrial	 allStim	 ra
11	 5	 0	 x	 LineStimuli//allStim/stimNo157r0c0v2.3.jpg	 r	 2.318	 GoodTrial	 allStim	 ra
12	 5	 0	 x	 LineStimuli//allStim/stimNo148r0c0v2.8.jpg	 r	 2.342	 GoodTrial	 allStim	 ra
13	 5	 0	 x	 LineStimuli//allStim/stimNo138r0c0v3.3.jpg	 r	 3.727	 GoodTrial	 allStim	 ra
14	 5	 1	 left	 LineStimuli//allStim/stimNo102r7c6v1.5.jpg	 r	 5.004	 GoodTrial	 allStim	 ra
15	 5	 1	 left	 LineStimuli//allStim/stimNo106r8c2v4.3.jpg	 l	 2.943	 GoodTrial	 allStim	 ra
16	 5	 0	 x	 LineStimuli//allStim/stimNo148r0c0v3.3.jpg	 r	 5.015	 GoodTrial	 allStim	 ra
17	 5	 0	 x	 LineStimuli//allStim/stimNo150r0c0v4.3.jpg	 r	 5.824	 GoodTrial	 allStim	 ra
18	 5	 0	 x	 LineStimuli//allStim/stimNo128r0c0v2.3.jpg	 r	 4.737	 GoodTrial	 allStim	 ra
19	 5	 1	 left	 LineStimuli//allStim/stimNo106r9c9v3.8.jpg	 l	 1.903	 GoodTrial	 allStim	 ra
20	 5	 1	 left	 LineStimuli//allStim/stimNo89r12c4v2.8.jpg	 l	 1.869	 GoodTrial	 allStim	 ra
21	 5	 1	 left	 LineStimuli//allStim/stimNo109r8c6v1.5.jpg	 r	 5.086	 GoodTrial	 allStim	 ra
22	 5	 1	 right	 LineStimuli//allStim/stimNo119r3c21v1.8.jpg	 r	 5.761	 GoodTrial	 allStim	 ra
23	 5	 1	 right	 LineStimuli//allStim/stimNo101r4c13v1.8.jpg	 l	 2.803	 GoodTrial	 allStim	 ra
24	 5	 1	 left	 LineStimuli//allStim/stimNo89r11c6v1.8.jpg	 l	 2.831	 GoodTrial	 allStim	 ra
25	 5	 0	 x	 LineStimuli//allStim/stimNo145r0c0v1.5.jpg	 r	 8.358	 GoodTrial	 allStim	 ra
26	 5	 1	 right	 LineStimuli//allStim/stimNo104r3c21v1.8.jpg	 r	 3.733	 GoodTrial	 allStim	 ra
27	 5	 0	 x	 LineStimuli//allStim/stimNo125r0c0v3.8.jpg	 r	 2.378	 GoodTrial	 allStim	 ra
28	 5	 1	 right	 LineStimuli//allStim/stimNo92r10c17v2.3.jpg	 l	 1.928	 GoodTrial	 allStim	 ra
29	 5	 0	 x	 LineStimuli//allStim/stimNo158r0c0v3.3.jpg	 r	 2.151	 GoodTrial	 allStim	 ra
30	 5	 1	 right	 LineStimuli//allStim/stimNo106r13c20v2.8.jpg	 l	 2.544	 GoodTrial	 allStim	 ra
31	 5	 0	 x	 LineStimuli//allStim/stimNo135r0c0v2.8.jpg	 r	 4.889	 GoodTrial	 allStim	 ra
32	 5	 0	 x	 LineStimuli//allStim/stimNo135r0c0v2.3.jpg	 r	 3.738	 GoodTrial	 allStim	 ra
33	 5	 0	 x	 LineStimuli//allStim/stimNo151r0c0v1.8.jpg	 r	 8.222	 GoodTrial	 allStim	 ra
34	 5	 0	 x	 LineStimuli//allStim/stimNo134r0c0v2.8.jpg	 r	 3.235	 GoodTrial	 allStim	 ra
35	 5	 0	 x	 LineStimuli//allStim/stimNo125r0c0v2.3.jpg	 r	 3.256	 GoodTrial	 allStim	 ra
36	 5	 0	 x	 LineStimuli//allStim/stimNo146r0c0v2.3.jpg	 r	 5.619	 GoodTrial	 allStim	 ra
37	 5	 0	 x	 LineStimuli//allStim/stimNo158r0c0v3.8.jpg	 r	 4.825	 GoodTrial	 allStim	 ra
38	 5	 0	 x	 LineStimuli//allStim/stimNo126r0c0v1.8.jpg	 l	 3.465	 GoodTrial	 allStim	 ra
39	 5	 0	 x	 LineStimuli//allStim/stimNo135r0c0v1.8.jpg	 r	 7.156	 GoodTrial	 allStim	 ra
40	 5	 1	 left	 LineStimuli//allStim/stimNo89r10c7v3.8.jpg	 l	 1.990	 GoodTrial	 allStim	 ra
41	 5	 1	 right	 LineStimuli//allStim/stimNo102r10c17v3.8.jpg	 l	 1.929	 GoodTrial	 allStim	 ra
42	 5	 1	 left	 LineStimuli//allStim/stimNo106r9c9v2.3.jpg	 l	 2.576	 GoodTrial	 allStim	 ra
43	 5	 0	 x	 LineStimuli//allStim/stimNo155r0c0v2.8.jpg	 r	 7.491	 GoodTrial	 allStim	 ra
44	 5	 0	 x	 LineStimuli//allStim/stimNo136r0c0v1.5.jpg	 r	 7.827	 GoodTrial	 allStim	 ra
45	 5	 0	 x	 LineStimuli//allStim/stimNo123r0c0v1.5.jpg	 r	 5.754	 GoodTrial	 allStim	 ra
46	 5	 1	 right	 LineStimuli//allStim/stimNo98r12c21v2.3.jpg	 l	 3.018	 GoodTrial	 allStim	 ra
47	 5	 0	 x	 LineStimuli//allStim/stimNo148r0c0v2.3.jpg	 r	 3.559	 GoodTrial	 allStim	 ra
48	 5	 1	 left	 LineStimuli//allStim/stimNo108r13c6v2.8.jpg	 l	 2.152	 GoodTrial	 allStim	 ra
49	 5	 1	 right	 LineStimuli//allStim/stimNo118r11c13v4.3.jpg	 l	 2.340	 GoodTrial	 allStim	 ra
50	 5	 0	 x	 LineStimuli//allStim/stimNo123r0c0v3.8.jpg	 r	 7.036	 GoodTrial	 allStim	 ra
1	 6	 1	 right	 LineStimuli//allStim/stimNo101r7c16v3.3.jpg	 l	 1.960	 GoodTrial	 allStim	 ra
2	 6	 1	 right	 LineStimuli//allStim/stimNo100r9c13v1.8.jpg	 l	 1.950	 GoodTrial	 allStim	 ra
3	 6	 1	 right	 LineStimuli//allStim/stimNo116r5c13v4.3.jpg	 l	 1.834	 GoodTrial	 allStim	 ra
4	 6	 1	 left	 LineStimuli//allStim/stimNo118r4c8v3.8.jpg	 l	 1.569	 GoodTrial	 allStim	 ra
5	 6	 0	 x	 LineStimuli//allStim/stimNo151r0c0v2.8.jpg	 r	 2.795	 GoodTrial	 allStim	 ra
6	 6	 1	 right	 LineStimuli//allStim/stimNo89r5c21v3.3.jpg	 l	 2.193	 GoodTrial	 allStim	 ra
7	 6	 0	 x	 LineStimuli//allStim/stimNo125r0c0v2.3.jpg	 r	 2.585	 GoodTrial	 allStim	 ra
8	 6	 1	 right	 LineStimuli//allStim/stimNo119r12c17v4.3.jpg	 l	 1.653	 GoodTrial	 allStim	 ra
9	 6	 1	 left	 LineStimuli//allStim/stimNo113r4c4v1.5.jpg	 r	 2.673	 GoodTrial	 allStim	 ra
10	 6	 0	 x	 LineStimuli//allStim/stimNo160r0c0v1.8.jpg	 r	 4.722	 GoodTrial	 allStim	 ra
11	 6	 0	 x	 LineStimuli//allStim/stimNo134r0c0v1.5.jpg	 r	 3.322	 GoodTrial	 allStim	 ra
12	 6	 0	 x	 LineStimuli//allStim/stimNo128r0c0v1.8.jpg	 r	 4.749	 GoodTrial	 allStim	 ra
13	 6	 1	 right	 LineStimuli//allStim/stimNo98r4c21v3.3.jpg	 l	 2.140	 GoodTrial	 allStim	 ra
14	 6	 0	 x	 LineStimuli//allStim/stimNo128r0c0v2.3.jpg	 r	 2.232	 GoodTrial	 allStim	 ra
15	 6	 1	 left	 LineStimuli//allStim/stimNo89r8c9v1.5.jpg	 r	 3.615	 GoodTrial	 allStim	 ra
16	 6	 0	 x	 LineStimuli//allStim/stimNo124r0c0v2.8.jpg	 r	 5.075	 GoodTrial	 allStim	 ra
17	 6	 1	 left	 LineStimuli//allStim/stimNo110r6c7v4.3.jpg	 l	 2.180	 GoodTrial	 allStim	 ra
18	 6	 1	 right	 LineStimuli//allStim/stimNo102r13c13v3.3.jpg	 l	 2.179	 GoodTrial	 allStim	 ra
19	 6	 0	 x	 LineStimuli//allStim/stimNo127r0c0v3.3.jpg	 r	 5.576	 GoodTrial	 allStim	 ra
20	 6	 1	 right	 LineStimuli//allStim/stimNo97r15c18v1.8.jpg	 l	 3.462	 GoodTrial	 allStim	 ra
21	 6	 1	 right	 LineStimuli//allStim/stimNo112r13c17v2.8.jpg	 l	 2.221	 GoodTrial	 allStim	 ra
22	 6	 0	 x	 LineStimuli//allStim/stimNo140r0c0v2.8.jpg	 r	 3.209	 GoodTrial	 allStim	 ra
23	 6	 1	 right	 LineStimuli//allStim/stimNo84r9c19v3.8.jpg	 l	 1.699	 GoodTrial	 allStim	 ra
24	 6	 1	 left	 LineStimuli//allStim/stimNo115r3c4v3.3.jpg	 l	 1.913	 GoodTrial	 allStim	 ra
25	 6	 0	 x	 LineStimuli//allStim/stimNo133r0c0v2.8.jpg	 r	 6.944	 GoodTrial	 allStim	 ra
26	 6	 0	 x	 LineStimuli//allStim/stimNo126r0c0v2.3.jpg	 r	 3.465	 GoodTrial	 allStim	 ra
27	 6	 0	 x	 LineStimuli//allStim/stimNo134r0c0v3.8.jpg	 r	 3.756	 GoodTrial	 allStim	 ra
28	 6	 0	 x	 LineStimuli//allStim/stimNo129r0c0v3.8.jpg	 r	 4.359	 GoodTrial	 allStim	 ra
29	 6	 1	 left	 LineStimuli//allStim/stimNo116r4c7v2.8.jpg	 l	 1.810	 GoodTrial	 allStim	 ra
30	 6	 0	 x	 LineStimuli//allStim/stimNo139r0c0v3.3.jpg	 r	 4.498	 GoodTrial	 allStim	 ra
31	 6	 0	 x	 LineStimuli//allStim/stimNo144r0c0v1.5.jpg	 r	 4.622	 GoodTrial	 allStim	 ra
32	 6	 1	 left	 LineStimuli//allStim/stimNo87r12c5v1.5.jpg	 r	 5.862	 GoodTrial	 allStim	 ra
33	 6	 1	 right	 LineStimuli//allStim/stimNo85r4c15v2.8.jpg	 l	 1.965	 GoodTrial	 allStim	 ra
34	 6	 1	 right	 LineStimuli//allStim/stimNo105r14c14v2.3.jpg	 l	 2.457	 GoodTrial	 allStim	 ra
35	 6	 0	 x	 LineStimuli//allStim/stimNo126r0c0v3.3.jpg	 r	 4.835	 GoodTrial	 allStim	 ra
36	 6	 1	 right	 LineStimuli//allStim/stimNo87r6c13v3.8.jpg	 l	 1.755	 GoodTrial	 allStim	 ra
37	 6	 1	 right	 LineStimuli//allStim/stimNo84r6c16v3.3.jpg	 l	 1.689	 GoodTrial	 allStim	 ra
38	 6	 1	 left	 LineStimuli//allStim/stimNo96r6c9v2.8.jpg	 l	 1.777	 GoodTrial	 allStim	 ra
39	 6	 1	 left	 LineStimuli//allStim/stimNo95r15c8v3.3.jpg	 l	 1.968	 GoodTrial	 allStim	 ra
40	 6	 1	 left	 LineStimuli//allStim/stimNo98r3c8v4.3.jpg	 l	 1.767	 GoodTrial	 allStim	 ra
41	 6	 1	 right	 LineStimuli//allStim/stimNo120r8c14v3.3.jpg	 l	 2.950	 GoodTrial	 allStim	 ra
42	 6	 0	 x	 LineStimuli//allStim/stimNo126r0c0v2.8.jpg	 r	 2.736	 GoodTrial	 allStim	 ra
43	 6	 0	 x	 LineStimuli//allStim/stimNo151r0c0v2.3.jpg	 r	 2.588	 GoodTrial	 allStim	 ra
44	 6	 1	 left	 LineStimuli//allStim/stimNo115r5c9v1.8.jpg	 l	 1.736	 GoodTrial	 allStim	 ra
45	 6	 0	 x	 LineStimuli//allStim/stimNo147r0c0v2.8.jpg	 r	 3.848	 GoodTrial	 allStim	 ra
46	 6	 1	 left	 LineStimuli//allStim/stimNo108r15c6v2.3.jpg	 l	 2.327	 GoodTrial	 allStim	 ra
47	 6	 1	 left	 LineStimuli//allStim/stimNo119r3c2v2.3.jpg	 l	 2.087	 GoodTrial	 allStim	 ra
48	 6	 1	 right	 LineStimuli//allStim/stimNo90r8c17v3.8.jpg	 l	 1.620	 GoodTrial	 allStim	 ra
49	 6	 0	 x	 LineStimuli//allStim/stimNo124r0c0v2.3.jpg	 r	 4.430	 GoodTrial	 allStim	 ra
50	 6	 0	 x	 LineStimuli//allStim/stimNo160r0c0v2.3.jpg	 l	 2.682	 GoodTrial	 allStim	 ra
1	 7	 0	 x	 LineStimuli//allStim/stimNo156r0c0v3.3.jpg	 r	 3.389	 GoodTrial	 allStim	 ra
2	 7	 0	 x	 LineStimuli//allStim/stimNo142r0c0v2.3.jpg	 r	 2.339	 GoodTrial	 allStim	 ra
3	 7	 1	 left	 LineStimuli//allStim/stimNo103r11c7v3.8.jpg	 l	 1.655	 GoodTrial	 allStim	 ra
4	 7	 0	 x	 LineStimuli//allStim/stimNo145r0c0v1.8.jpg	 x	 1.107	 GoodTrial	 allStim	 ra
5	 7	 0	 x	 LineStimuli//allStim/stimNo140r0c0v2.3.jpg	 r	 4.465	 GoodTrial	 allStim	 ra
6	 7	 1	 left	 LineStimuli//allStim/stimNo96r3c3v2.3.jpg	 l	 2.461	 GoodTrial	 allStim	 ra
7	 7	 1	 right	 LineStimuli//allStim/stimNo110r7c14v2.8.jpg	 l	 2.330	 GoodTrial	 allStim	 ra
8	 7	 1	 right	 LineStimuli//allStim/stimNo93r4c16v2.3.jpg	 l	 2.175	 GoodTrial	 allStim	 ra
9	 7	 0	 x	 LineStimuli//allStim/stimNo122r0c0v3.8.jpg	 r	 4.579	 GoodTrial	 allStim	 ra
10	 7	 0	 x	 LineStimuli//allStim/stimNo121r0c0v3.8.jpg	 r	 3.638	 GoodTrial	 allStim	 ra
11	 7	 1	 left	 LineStimuli//allStim/stimNo85r3c5v4.3.jpg	 l	 1.683	 GoodTrial	 allStim	 ra
12	 7	 0	 x	 LineStimuli//allStim/stimNo141r0c0v3.3.jpg	 r	 4.635	 GoodTrial	 allStim	 ra
13	 7	 0	 x	 LineStimuli//allStim/stimNo151r0c0v1.8.jpg	 r	 3.637	 GoodTrial	 allStim	 ra
14	 7	 1	 left	 LineStimuli//allStim/stimNo103r6c6v3.3.jpg	 l	 1.690	 GoodTrial	 allStim	 ra
15	 7	 1	 right	 LineStimuli//allStim/stimNo108r13c15v1.5.jpg	 r	 5.942	 GoodTrial	 allStim	 ra
16	 7	 0	 x	 LineStimuli//allStim/stimNo138r0c0v4.3.jpg	 r	 2.372	 GoodTrial	 allStim	 ra
17	 7	 1	 left	 LineStimuli//allStim/stimNo104r2c4v2.3.jpg	 l	 2.733	 GoodTrial	 allStim	 ra
18	 7	 1	 left	 LineStimuli//allStim/stimNo96r13c2v1.8.jpg	 l	 1.874	 GoodTrial	 allStim	 ra
19	 7	 1	 left	 LineStimuli//allStim/stimNo116r7c7v1.5.jpg	 r	 4.409	 GoodTrial	 allStim	 ra
20	 7	 1	 left	 LineStimuli//allStim/stimNo111r10c9v4.3.jpg	 l	 1.584	 GoodTrial	 allStim	 ra
21	 7	 1	 left	 LineStimuli//allStim/stimNo117r7c8v1.5.jpg	 l	 1.999	 GoodTrial	 allStim	 ra
22	 7	 1	 right	 LineStimuli//allStim/stimNo99r9c18v2.8.jpg	 x	 2.489	 GoodTrial	 allStim	 ra
23	 7	 1	 right	 LineStimuli//allStim/stimNo89r8c21v2.3.jpg	 l	 1.768	 GoodTrial	 allStim	 ra
24	 7	 1	 left	 LineStimuli//allStim/stimNo96r15c4v1.5.jpg	 r	 5.005	 GoodTrial	 allStim	 ra
25	 7	 1	 left	 LineStimuli//allStim/stimNo112r9c5v1.5.jpg	 r	 5.408	 GoodTrial	 allStim	 ra
26	 7	 1	 left	 LineStimuli//allStim/stimNo84r3c9v2.8.jpg	 l	 1.623	 GoodTrial	 allStim	 ra
27	 7	 1	 left	 LineStimuli//allStim/stimNo108r15c6v2.3.jpg	 l	 1.843	 GoodTrial	 allStim	 ra
28	 7	 0	 x	 LineStimuli//allStim/stimNo131r0c0v3.3.jpg	 r	 2.820	 GoodTrial	 allStim	 ra
29	 7	 0	 x	 LineStimuli//allStim/stimNo157r0c0v2.8.jpg	 r	 2.997	 GoodTrial	 allStim	 ra
30	 7	 1	 left	 LineStimuli//allStim/stimNo120r14c2v1.5.jpg	 l	 2.566	 GoodTrial	 allStim	 ra
31	 7	 1	 right	 LineStimuli//allStim/stimNo118r9c20v1.5.jpg	 r	 5.176	 GoodTrial	 allStim	 ra
32	 7	 1	 left	 LineStimuli//allStim/stimNo91r2c3v2.8.jpg	 l	 1.789	 GoodTrial	 allStim	 ra
33	 7	 1	 right	 LineStimuli//allStim/stimNo87r6c13v3.8.jpg	 l	 2.149	 GoodTrial	 allStim	 ra
34	 7	 0	 x	 LineStimuli//allStim/stimNo146r0c0v2.3.jpg	 r	 7.525	 GoodTrial	 allStim	 ra
35	 7	 1	 right	 LineStimuli//allStim/stimNo94r12c13v4.3.jpg	 l	 1.874	 GoodTrial	 allStim	 ra
36	 7	 0	 x	 LineStimuli//allStim/stimNo136r0c0v4.3.jpg	 r	 3.248	 GoodTrial	 allStim	 ra
37	 7	 0	 x	 LineStimuli//allStim/stimNo125r0c0v1.5.jpg	 r	 9.385	 GoodTrial	 allStim	 ra
38	 7	 1	 left	 LineStimuli//allStim/stimNo98r15c2v2.8.jpg	 l	 1.963	 GoodTrial	 allStim	 ra
39	 7	 0	 x	 LineStimuli//allStim/stimNo121r0c0v1.5.jpg	 r	 5.305	 GoodTrial	 allStim	 ra
40	 7	 0	 x	 LineStimuli//allStim/stimNo135r0c0v2.8.jpg	 r	 5.830	 GoodTrial	 allStim	 ra
41	 7	 0	 x	 LineStimuli//allStim/stimNo121r0c0v4.3.jpg	 r	 3.929	 GoodTrial	 allStim	 ra
42	 7	 0	 x	 LineStimuli//allStim/stimNo145r0c0v3.8.jpg	 r	 2.193	 GoodTrial	 allStim	 ra
43	 7	 0	 x	 LineStimuli//allStim/stimNo132r0c0v4.3.jpg	 r	 1.772	 GoodTrial	 allStim	 ra
44	 7	 0	 x	 LineStimuli//allStim/stimNo139r0c0v3.3.jpg	 r	 1.376	 GoodTrial	 allStim	 ra
45	 7	 0	 x	 LineStimuli//allStim/stimNo157r0c0v1.8.jpg	 r	 1.443	 GoodTrial	 allStim	 ra
46	 7	 1	 right	 LineStimuli//allStim/stimNo111r7c17v1.5.jpg	 r	 5.128	 GoodTrial	 allStim	 ra
47	 7	 1	 right	 LineStimuli//allStim/stimNo115r14c18v1.5.jpg	 r	 3.219	 GoodTrial	 allStim	 ra
48	 7	 1	 right	 LineStimuli//allStim/stimNo107r11c15v2.3.jpg	 l	 1.899	 GoodTrial	 allStim	 ra
49	 7	 0	 x	 LineStimuli//allStim/stimNo138r0c0v2.3.jpg	 r	 3.665	 GoodTrial	 allStim	 ra
50	 7	 0	 x	 LineStimuli//allStim/stimNo142r0c0v1.8.jpg	 r	 4.624	 GoodTrial	 allStim	 ra
