Trial	Block	Target_pr	Target_side	Name	Key	RT	Message	Block_Type	Condition
1	 1	 0	 x	 LineStimuli//allStim/stimNo127r0c0v4.3.jpg	 l	 5.278	 GoodTrial	 allStim	 ra
2	 1	 0	 x	 LineStimuli//allStim/stimNo124r0c0v3.8.jpg	 l	 9.903	 GoodTrial	 allStim	 ra
3	 1	 0	 x	 LineStimuli//allStim/stimNo136r0c0v4.3.jpg	 l	 20.829	 GoodTrial	 allStim	 ra
4	 1	 1	 left	 LineStimuli//allStim/stimNo119r3c2v2.3.jpg	 r	 1.998	 GoodTrial	 allStim	 ra
5	 1	 0	 x	 LineStimuli//allStim/stimNo127r0c0v2.3.jpg	 l	 15.333	 GoodTrial	 allStim	 ra
6	 1	 0	 x	 LineStimuli//allStim/stimNo133r0c0v3.3.jpg	 l	 30.159	 GoodTrial	 allStim	 ra
7	 1	 0	 x	 LineStimuli//allStim/stimNo126r0c0v3.3.jpg	 l	 30.208	 GoodTrial	 allStim	 ra
8	 1	 0	 x	 LineStimuli//allStim/stimNo122r0c0v2.8.jpg	 l	 35.906	 GoodTrial	 allStim	 ra
9	 1	 0	 x	 LineStimuli//allStim/stimNo134r0c0v4.3.jpg	 l	 25.527	 GoodTrial	 allStim	 ra
10	 1	 1	 right	 LineStimuli//allStim/stimNo100r9c13v1.8.jpg	 r	 29.148	 GoodTrial	 allStim	 ra
11	 1	 0	 x	 LineStimuli//allStim/stimNo146r0c0v2.8.jpg	 l	 20.052	 GoodTrial	 allStim	 ra
12	 1	 0	 x	 LineStimuli//allStim/stimNo131r0c0v2.3.jpg	 l	 25.131	 GoodTrial	 allStim	 ra
13	 1	 1	 right	 LineStimuli//allStim/stimNo117r10c16v1.8.jpg	 l	 50.568	 GoodTrial	 allStim	 ra
14	 1	 0	 x	 LineStimuli//allStim/stimNo157r0c0v3.3.jpg	 r	 5.683	 GoodTrial	 allStim	 ra
15	 1	 1	 left	 LineStimuli//allStim/stimNo108r5c8v4.3.jpg	 r	 3.456	 GoodTrial	 allStim	 ra
16	 1	 1	 right	 LineStimuli//allStim/stimNo120r4c17v2.3.jpg	 r	 10.509	 GoodTrial	 allStim	 ra
17	 1	 0	 x	 LineStimuli//allStim/stimNo151r0c0v1.5.jpg	 r	 25.706	 GoodTrial	 allStim	 ra
18	 1	 1	 right	 LineStimuli//allStim/stimNo92r2c20v4.3.jpg	 r	 3.434	 GoodTrial	 allStim	 ra
19	 1	 1	 left	 LineStimuli//allStim/stimNo100r8c6v2.3.jpg	 r	 6.239	 GoodTrial	 allStim	 ra
20	 1	 1	 right	 LineStimuli//allStim/stimNo82r7c18v1.8.jpg	 r	 7.652	 GoodTrial	 allStim	 ra
21	 1	 1	 left	 LineStimuli//allStim/stimNo97r15c6v1.5.jpg	 r	 9.416	 GoodTrial	 allStim	 ra
22	 1	 1	 left	 LineStimuli//allStim/stimNo86r14c4v1.8.jpg	 r	 29.898	 GoodTrial	 allStim	 ra
23	 1	 1	 left	 LineStimuli//allStim/stimNo83r12c4v2.8.jpg	 r	 8.739	 GoodTrial	 allStim	 ra
24	 1	 0	 x	 LineStimuli//allStim/stimNo153r0c0v2.8.jpg	 l	 8.092	 GoodTrial	 allStim	 ra
25	 1	 1	 left	 LineStimuli//allStim/stimNo113r6c7v1.8.jpg	 r	 2.995	 GoodTrial	 allStim	 ra
26	 1	 1	 right	 LineStimuli//allStim/stimNo93r9c20v2.8.jpg	 r	 4.512	 GoodTrial	 allStim	 ra
27	 1	 1	 right	 LineStimuli//allStim/stimNo98r12c21v2.3.jpg	 r	 2.125	 GoodTrial	 allStim	 ra
28	 1	 0	 x	 LineStimuli//allStim/stimNo135r0c0v2.8.jpg	 l	 11.451	 GoodTrial	 allStim	 ra
29	 1	 0	 x	 LineStimuli//allStim/stimNo144r0c0v2.8.jpg	 l	 10.446	 GoodTrial	 allStim	 ra
30	 1	 1	 right	 LineStimuli//allStim/stimNo103r11c21v2.3.jpg	 r	 2.114	 GoodTrial	 allStim	 ra
31	 1	 0	 x	 LineStimuli//allStim/stimNo128r0c0v4.3.jpg	 l	 8.450	 GoodTrial	 allStim	 ra
32	 1	 1	 left	 LineStimuli//allStim/stimNo104r8c6v2.8.jpg	 r	 1.829	 GoodTrial	 allStim	 ra
33	 1	 0	 x	 LineStimuli//allStim/stimNo124r0c0v4.3.jpg	 l	 8.869	 GoodTrial	 allStim	 ra
34	 1	 0	 x	 LineStimuli//allStim/stimNo154r0c0v1.5.jpg	 l	 24.822	 GoodTrial	 allStim	 ra
35	 1	 0	 x	 LineStimuli//allStim/stimNo153r0c0v4.3.jpg	 l	 8.777	 GoodTrial	 allStim	 ra
36	 1	 0	 x	 LineStimuli//allStim/stimNo125r0c0v2.8.jpg	 l	 11.246	 GoodTrial	 allStim	 ra
37	 1	 1	 right	 LineStimuli//allStim/stimNo114r10c15v4.3.jpg	 x	 0.064	 EARLY_RESPONSE	 allStim	 ra
38	 1	 0	 x	 LineStimuli//allStim/stimNo141r0c0v4.3.jpg	 l	 9.938	 GoodTrial	 allStim	 ra
39	 1	 1	 right	 LineStimuli//allStim/stimNo107r11c15v2.3.jpg	 r	 1.929	 GoodTrial	 allStim	 ra
40	 1	 0	 x	 LineStimuli//allStim/stimNo148r0c0v1.5.jpg	 l	 20.679	 GoodTrial	 allStim	 ra
41	 1	 1	 left	 LineStimuli//allStim/stimNo112r9c5v1.5.jpg	 r	 2.689	 GoodTrial	 allStim	 ra
42	 1	 1	 right	 LineStimuli//allStim/stimNo116r10c14v3.3.jpg	 r	 6.791	 GoodTrial	 allStim	 ra
43	 1	 0	 x	 LineStimuli//allStim/stimNo150r0c0v2.3.jpg	 l	 8.800	 GoodTrial	 allStim	 ra
44	 1	 0	 x	 LineStimuli//allStim/stimNo153r0c0v2.3.jpg	 l	 7.768	 GoodTrial	 allStim	 ra
45	 1	 1	 left	 LineStimuli//allStim/stimNo88r15c9v1.8.jpg	 l	 9.574	 GoodTrial	 allStim	 ra
46	 1	 0	 x	 LineStimuli//allStim/stimNo135r0c0v2.3.jpg	 l	 19.496	 GoodTrial	 allStim	 ra
47	 1	 0	 x	 LineStimuli//allStim/stimNo153r0c0v3.8.jpg	 l	 9.726	 GoodTrial	 allStim	 ra
48	 1	 1	 left	 LineStimuli//allStim/stimNo84r3c9v2.8.jpg	 r	 2.707	 GoodTrial	 allStim	 ra
49	 1	 0	 x	 LineStimuli//allStim/stimNo122r0c0v3.8.jpg	 l	 8.094	 GoodTrial	 allStim	 ra
50	 1	 0	 x	 LineStimuli//allStim/stimNo159r0c0v1.8.jpg	 l	 12.958	 GoodTrial	 allStim	 ra
1	 2	 1	 right	 LineStimuli//allStim/stimNo111r4c21v1.8.jpg	 l	 8.101	 GoodTrial	 allStim	 ra
2	 2	 1	 left	 LineStimuli//allStim/stimNo93r9c9v4.3.jpg	 r	 1.872	 GoodTrial	 allStim	 ra
3	 2	 0	 x	 LineStimuli//allStim/stimNo141r0c0v1.5.jpg	 l	 9.790	 GoodTrial	 allStim	 ra
4	 2	 1	 right	 LineStimuli//allStim/stimNo104r3c21v1.8.jpg	 r	 12.129	 GoodTrial	 allStim	 ra
5	 2	 1	 left	 LineStimuli//allStim/stimNo94r13c7v2.8.jpg	 r	 2.289	 GoodTrial	 allStim	 ra
6	 2	 1	 left	 LineStimuli//allStim/stimNo117r11c8v2.3.jpg	 r	 1.965	 GoodTrial	 allStim	 ra
7	 2	 1	 right	 LineStimuli//allStim/stimNo102r13c13v3.3.jpg	 r	 2.032	 GoodTrial	 allStim	 ra
8	 2	 0	 x	 LineStimuli//allStim/stimNo136r0c0v3.3.jpg	 l	 9.696	 GoodTrial	 allStim	 ra
9	 2	 0	 x	 LineStimuli//allStim/stimNo124r0c0v3.3.jpg	 l	 6.179	 GoodTrial	 allStim	 ra
10	 2	 0	 x	 LineStimuli//allStim/stimNo134r0c0v1.5.jpg	 l	 13.795	 GoodTrial	 allStim	 ra
11	 2	 1	 right	 LineStimuli//allStim/stimNo118r5c16v2.8.jpg	 r	 1.795	 GoodTrial	 allStim	 ra
12	 2	 0	 x	 LineStimuli//allStim/stimNo154r0c0v1.5.jpg	 l	 14.112	 GoodTrial	 allStim	 ra
13	 2	 0	 x	 LineStimuli//allStim/stimNo150r0c0v3.3.jpg	 l	 7.593	 GoodTrial	 allStim	 ra
14	 2	 1	 left	 LineStimuli//allStim/stimNo98r2c9v3.8.jpg	 r	 1.807	 GoodTrial	 allStim	 ra
15	 2	 0	 x	 LineStimuli//allStim/stimNo147r0c0v3.8.jpg	 l	 8.384	 GoodTrial	 allStim	 ra
16	 2	 1	 left	 LineStimuli//allStim/stimNo87r11c8v2.8.jpg	 r	 1.803	 GoodTrial	 allStim	 ra
17	 2	 0	 x	 LineStimuli//allStim/stimNo141r0c0v3.3.jpg	 l	 7.562	 GoodTrial	 allStim	 ra
18	 2	 1	 left	 LineStimuli//allStim/stimNo116r2c2v2.3.jpg	 r	 2.554	 GoodTrial	 allStim	 ra
19	 2	 1	 right	 LineStimuli//allStim/stimNo101r4c13v1.8.jpg	 r	 2.064	 GoodTrial	 allStim	 ra
20	 2	 1	 left	 LineStimuli//allStim/stimNo88r15c3v2.8.jpg	 r	 3.664	 GoodTrial	 allStim	 ra
21	 2	 0	 x	 LineStimuli//allStim/stimNo143r0c0v2.8.jpg	 l	 10.327	 GoodTrial	 allStim	 ra
22	 2	 0	 x	 LineStimuli//allStim/stimNo126r0c0v1.8.jpg	 l	 9.359	 GoodTrial	 allStim	 ra
23	 2	 1	 left	 LineStimuli//allStim/stimNo116r4c7v1.8.jpg	 r	 2.378	 GoodTrial	 allStim	 ra
24	 2	 0	 x	 LineStimuli//allStim/stimNo133r0c0v3.8.jpg	 l	 10.059	 GoodTrial	 allStim	 ra
25	 2	 0	 x	 LineStimuli//allStim/stimNo158r0c0v3.3.jpg	 l	 6.964	 GoodTrial	 allStim	 ra
26	 2	 0	 x	 LineStimuli//allStim/stimNo140r0c0v1.5.jpg	 l	 12.980	 GoodTrial	 allStim	 ra
27	 2	 1	 left	 LineStimuli//allStim/stimNo109r11c8v3.8.jpg	 r	 2.238	 GoodTrial	 allStim	 ra
28	 2	 1	 left	 LineStimuli//allStim/stimNo104r12c8v3.8.jpg	 r	 1.968	 GoodTrial	 allStim	 ra
29	 2	 1	 right	 LineStimuli//allStim/stimNo101r5c20v1.5.jpg	 r	 9.296	 GoodTrial	 allStim	 ra
30	 2	 1	 left	 LineStimuli//allStim/stimNo81r6c8v1.8.jpg	 r	 2.355	 GoodTrial	 allStim	 ra
31	 2	 1	 left	 LineStimuli//allStim/stimNo119r3c2v2.3.jpg	 r	 3.669	 GoodTrial	 allStim	 ra
32	 2	 1	 right	 LineStimuli//allStim/stimNo110r7c14v2.8.jpg	 r	 2.790	 GoodTrial	 allStim	 ra
33	 2	 0	 x	 LineStimuli//allStim/stimNo149r0c0v4.3.jpg	 l	 5.750	 GoodTrial	 allStim	 ra
34	 2	 1	 left	 LineStimuli//allStim/stimNo120r5c3v3.8.jpg	 r	 1.781	 GoodTrial	 allStim	 ra
35	 2	 0	 x	 LineStimuli//allStim/stimNo159r0c0v2.3.jpg	 l	 7.268	 GoodTrial	 allStim	 ra
36	 2	 0	 x	 LineStimuli//allStim/stimNo136r0c0v4.3.jpg	 l	 7.325	 GoodTrial	 allStim	 ra
37	 2	 0	 x	 LineStimuli//allStim/stimNo159r0c0v1.8.jpg	 l	 12.544	 GoodTrial	 allStim	 ra
38	 2	 1	 left	 LineStimuli//allStim/stimNo110r7c3v1.5.jpg	 r	 2.157	 GoodTrial	 allStim	 ra
39	 2	 0	 x	 LineStimuli//allStim/stimNo150r0c0v1.8.jpg	 l	 12.462	 GoodTrial	 allStim	 ra
40	 2	 0	 x	 LineStimuli//allStim/stimNo151r0c0v3.3.jpg	 l	 12.512	 GoodTrial	 allStim	 ra
41	 2	 0	 x	 LineStimuli//allStim/stimNo127r0c0v1.5.jpg	 l	 17.145	 GoodTrial	 allStim	 ra
42	 2	 1	 left	 LineStimuli//allStim/stimNo83r14c4v2.3.jpg	 r	 2.031	 GoodTrial	 allStim	 ra
43	 2	 1	 left	 LineStimuli//allStim/stimNo103r11c7v3.8.jpg	 r	 1.663	 GoodTrial	 allStim	 ra
44	 2	 1	 left	 LineStimuli//allStim/stimNo82r12c4v2.3.jpg	 r	 1.902	 GoodTrial	 allStim	 ra
45	 2	 1	 right	 LineStimuli//allStim/stimNo91r12c16v3.3.jpg	 r	 1.689	 GoodTrial	 allStim	 ra
46	 2	 0	 x	 LineStimuli//allStim/stimNo144r0c0v2.3.jpg	 l	 9.137	 GoodTrial	 allStim	 ra
47	 2	 1	 left	 LineStimuli//allStim/stimNo87r12c5v1.5.jpg	 r	 2.042	 GoodTrial	 allStim	 ra
48	 2	 1	 right	 LineStimuli//allStim/stimNo92r10c18v1.8.jpg	 r	 1.900	 GoodTrial	 allStim	 ra
49	 2	 0	 x	 LineStimuli//allStim/stimNo154r0c0v2.3.jpg	 l	 7.611	 GoodTrial	 allStim	 ra
50	 2	 0	 x	 LineStimuli//allStim/stimNo123r0c0v2.3.jpg	 l	 6.730	 GoodTrial	 allStim	 ra
1	 3	 0	 x	 LineStimuli//allStim/stimNo154r0c0v1.5.jpg	 l	 8.346	 GoodTrial	 allStim	 ra
2	 3	 1	 left	 LineStimuli//allStim/stimNo106r13c9v1.8.jpg	 r	 2.255	 GoodTrial	 allStim	 ra
3	 3	 1	 right	 LineStimuli//allStim/stimNo86r6c16v1.5.jpg	 l	 6.258	 GoodTrial	 allStim	 ra
4	 3	 0	 x	 LineStimuli//allStim/stimNo144r0c0v3.8.jpg	 l	 5.681	 GoodTrial	 allStim	 ra
5	 3	 0	 x	 LineStimuli//allStim/stimNo155r0c0v2.8.jpg	 l	 5.529	 GoodTrial	 allStim	 ra
6	 3	 1	 right	 LineStimuli//allStim/stimNo120r8c14v3.3.jpg	 r	 1.709	 GoodTrial	 allStim	 ra
7	 3	 0	 x	 LineStimuli//allStim/stimNo155r0c0v3.3.jpg	 l	 5.983	 GoodTrial	 allStim	 ra
8	 3	 0	 x	 LineStimuli//allStim/stimNo151r0c0v2.3.jpg	 l	 6.555	 GoodTrial	 allStim	 ra
9	 3	 0	 x	 LineStimuli//allStim/stimNo134r0c0v2.3.jpg	 l	 5.858	 GoodTrial	 allStim	 ra
10	 3	 0	 x	 LineStimuli//allStim/stimNo128r0c0v3.3.jpg	 l	 5.620	 GoodTrial	 allStim	 ra
11	 3	 1	 right	 LineStimuli//allStim/stimNo107r11c15v2.3.jpg	 r	 1.699	 GoodTrial	 allStim	 ra
12	 3	 1	 right	 LineStimuli//allStim/stimNo84r15c14v2.3.jpg	 r	 1.951	 GoodTrial	 allStim	 ra
13	 3	 0	 x	 LineStimuli//allStim/stimNo128r0c0v1.5.jpg	 l	 11.677	 GoodTrial	 allStim	 ra
14	 3	 0	 x	 LineStimuli//allStim/stimNo152r0c0v1.5.jpg	 l	 6.408	 GoodTrial	 allStim	 ra
15	 3	 0	 x	 LineStimuli//allStim/stimNo131r0c0v1.8.jpg	 l	 7.635	 GoodTrial	 allStim	 ra
16	 3	 0	 x	 LineStimuli//allStim/stimNo134r0c0v3.3.jpg	 l	 6.054	 GoodTrial	 allStim	 ra
17	 3	 1	 right	 LineStimuli//allStim/stimNo95r5c21v3.8.jpg	 r	 2.983	 GoodTrial	 allStim	 ra
18	 3	 0	 x	 LineStimuli//allStim/stimNo123r0c0v3.3.jpg	 l	 6.952	 GoodTrial	 allStim	 ra
19	 3	 0	 x	 LineStimuli//allStim/stimNo153r0c0v4.3.jpg	 x	 0.720	 EARLY_RESPONSE	 allStim	 ra
20	 3	 0	 x	 LineStimuli//allStim/stimNo136r0c0v3.3.jpg	 l	 6.649	 GoodTrial	 allStim	 ra
21	 3	 0	 x	 LineStimuli//allStim/stimNo150r0c0v3.3.jpg	 l	 5.983	 GoodTrial	 allStim	 ra
22	 3	 1	 left	 LineStimuli//allStim/stimNo102r7c6v1.5.jpg	 r	 2.038	 GoodTrial	 allStim	 ra
23	 3	 1	 right	 LineStimuli//allStim/stimNo113r13c15v3.3.jpg	 r	 2.156	 GoodTrial	 allStim	 ra
24	 3	 0	 x	 LineStimuli//allStim/stimNo151r0c0v3.8.jpg	 l	 8.784	 GoodTrial	 allStim	 ra
25	 3	 0	 x	 LineStimuli//allStim/stimNo160r0c0v4.3.jpg	 l	 5.121	 GoodTrial	 allStim	 ra
26	 3	 0	 x	 LineStimuli//allStim/stimNo159r0c0v4.3.jpg	 l	 7.431	 GoodTrial	 allStim	 ra
27	 3	 0	 x	 LineStimuli//allStim/stimNo148r0c0v2.3.jpg	 l	 6.702	 GoodTrial	 allStim	 ra
28	 3	 1	 right	 LineStimuli//allStim/stimNo89r8c21v2.3.jpg	 r	 2.195	 GoodTrial	 allStim	 ra
29	 3	 0	 x	 LineStimuli//allStim/stimNo128r0c0v2.8.jpg	 l	 6.228	 GoodTrial	 allStim	 ra
30	 3	 0	 x	 LineStimuli//allStim/stimNo127r0c0v1.8.jpg	 l	 6.256	 GoodTrial	 allStim	 ra
31	 3	 1	 left	 LineStimuli//allStim/stimNo103r10c4v4.3.jpg	 r	 1.753	 GoodTrial	 allStim	 ra
32	 3	 0	 x	 LineStimuli//allStim/stimNo122r0c0v4.3.jpg	 l	 3.465	 GoodTrial	 allStim	 ra
33	 3	 0	 x	 LineStimuli//allStim/stimNo135r0c0v2.3.jpg	 l	 4.924	 GoodTrial	 allStim	 ra
34	 3	 1	 left	 LineStimuli//allStim/stimNo85r6c4v3.3.jpg	 r	 1.607	 GoodTrial	 allStim	 ra
35	 3	 1	 left	 LineStimuli//allStim/stimNo120r14c2v1.5.jpg	 r	 4.864	 GoodTrial	 allStim	 ra
36	 3	 0	 x	 LineStimuli//allStim/stimNo140r0c0v4.3.jpg	 l	 4.227	 GoodTrial	 allStim	 ra
37	 3	 0	 x	 LineStimuli//allStim/stimNo145r0c0v4.3.jpg	 l	 3.192	 GoodTrial	 allStim	 ra
38	 3	 1	 right	 LineStimuli//allStim/stimNo102r10c17v3.8.jpg	 r	 1.598	 GoodTrial	 allStim	 ra
39	 3	 1	 left	 LineStimuli//allStim/stimNo83r14c4v2.3.jpg	 r	 1.790	 GoodTrial	 allStim	 ra
40	 3	 1	 right	 LineStimuli//allStim/stimNo90r13c21v2.8.jpg	 r	 2.095	 GoodTrial	 allStim	 ra
41	 3	 0	 x	 LineStimuli//allStim/stimNo135r0c0v1.8.jpg	 l	 7.243	 GoodTrial	 allStim	 ra
42	 3	 0	 x	 LineStimuli//allStim/stimNo139r0c0v1.5.jpg	 l	 7.982	 GoodTrial	 allStim	 ra
43	 3	 1	 left	 LineStimuli//allStim/stimNo103r6c6v3.3.jpg	 r	 2.712	 GoodTrial	 allStim	 ra
44	 3	 1	 left	 LineStimuli//allStim/stimNo95r15c8v3.3.jpg	 r	 1.998	 GoodTrial	 allStim	 ra
45	 3	 1	 left	 LineStimuli//allStim/stimNo120r5c3v3.8.jpg	 r	 1.629	 GoodTrial	 allStim	 ra
46	 3	 1	 right	 LineStimuli//allStim/stimNo92r10c17v2.3.jpg	 r	 1.712	 GoodTrial	 allStim	 ra
47	 3	 1	 right	 LineStimuli//allStim/stimNo87r6c13v3.8.jpg	 r	 1.582	 GoodTrial	 allStim	 ra
48	 3	 0	 x	 LineStimuli//allStim/stimNo122r0c0v3.8.jpg	 l	 3.829	 GoodTrial	 allStim	 ra
49	 3	 0	 x	 LineStimuli//allStim/stimNo143r0c0v3.3.jpg	 l	 3.591	 GoodTrial	 allStim	 ra
50	 3	 1	 left	 LineStimuli//allStim/stimNo99r10c3v1.5.jpg	 r	 2.797	 GoodTrial	 allStim	 ra
1	 4	 0	 x	 LineStimuli//allStim/stimNo151r0c0v3.8.jpg	 l	 3.429	 GoodTrial	 allStim	 ra
2	 4	 1	 right	 LineStimuli//allStim/stimNo95r6c14v1.5.jpg	 r	 2.057	 GoodTrial	 allStim	 ra
3	 4	 0	 x	 LineStimuli//allStim/stimNo139r0c0v4.3.jpg	 l	 3.432	 GoodTrial	 allStim	 ra
4	 4	 0	 x	 LineStimuli//allStim/stimNo144r0c0v3.3.jpg	 l	 3.907	 GoodTrial	 allStim	 ra
5	 4	 0	 x	 LineStimuli//allStim/stimNo121r0c0v2.8.jpg	 l	 3.410	 GoodTrial	 allStim	 ra
6	 4	 0	 x	 LineStimuli//allStim/stimNo155r0c0v2.3.jpg	 l	 3.543	 GoodTrial	 allStim	 ra
7	 4	 1	 right	 LineStimuli//allStim/stimNo91r9c13v4.3.jpg	 r	 1.601	 GoodTrial	 allStim	 ra
8	 4	 0	 x	 LineStimuli//allStim/stimNo153r0c0v1.5.jpg	 l	 6.551	 GoodTrial	 allStim	 ra
9	 4	 1	 left	 LineStimuli//allStim/stimNo105r14c6v4.3.jpg	 r	 1.665	 GoodTrial	 allStim	 ra
10	 4	 0	 x	 LineStimuli//allStim/stimNo132r0c0v2.3.jpg	 l	 5.558	 GoodTrial	 allStim	 ra
11	 4	 0	 x	 LineStimuli//allStim/stimNo129r0c0v1.8.jpg	 l	 4.683	 GoodTrial	 allStim	 ra
12	 4	 0	 x	 LineStimuli//allStim/stimNo121r0c0v3.8.jpg	 l	 3.011	 GoodTrial	 allStim	 ra
13	 4	 1	 right	 LineStimuli//allStim/stimNo93r4c16v2.3.jpg	 r	 1.868	 GoodTrial	 allStim	 ra
14	 4	 1	 right	 LineStimuli//allStim/stimNo111r4c21v1.8.jpg	 r	 2.430	 GoodTrial	 allStim	 ra
15	 4	 1	 right	 LineStimuli//allStim/stimNo112r10c16v4.3.jpg	 r	 1.619	 GoodTrial	 allStim	 ra
16	 4	 0	 x	 LineStimuli//allStim/stimNo129r0c0v3.3.jpg	 l	 4.835	 GoodTrial	 allStim	 ra
17	 4	 0	 x	 LineStimuli//allStim/stimNo129r0c0v2.8.jpg	 l	 4.459	 GoodTrial	 allStim	 ra
18	 4	 1	 right	 LineStimuli//allStim/stimNo93r9c20v2.8.jpg	 r	 1.641	 GoodTrial	 allStim	 ra
19	 4	 1	 right	 LineStimuli//allStim/stimNo114r8c13v1.8.jpg	 r	 1.724	 GoodTrial	 allStim	 ra
20	 4	 0	 x	 LineStimuli//allStim/stimNo132r0c0v4.3.jpg	 l	 3.388	 GoodTrial	 allStim	 ra
21	 4	 0	 x	 LineStimuli//allStim/stimNo133r0c0v1.5.jpg	 l	 5.316	 GoodTrial	 allStim	 ra
22	 4	 0	 x	 LineStimuli//allStim/stimNo129r0c0v4.3.jpg	 l	 3.582	 GoodTrial	 allStim	 ra
23	 4	 0	 x	 LineStimuli//allStim/stimNo146r0c0v2.3.jpg	 l	 3.581	 GoodTrial	 allStim	 ra
24	 4	 1	 left	 LineStimuli//allStim/stimNo116r7c3v3.8.jpg	 r	 1.695	 GoodTrial	 allStim	 ra
25	 4	 0	 x	 LineStimuli//allStim/stimNo160r0c0v3.3.jpg	 l	 3.203	 GoodTrial	 allStim	 ra
26	 4	 0	 x	 LineStimuli//allStim/stimNo131r0c0v2.3.jpg	 l	 3.098	 GoodTrial	 allStim	 ra
27	 4	 0	 x	 LineStimuli//allStim/stimNo138r0c0v1.5.jpg	 l	 5.232	 GoodTrial	 allStim	 ra
28	 4	 0	 x	 LineStimuli//allStim/stimNo134r0c0v3.3.jpg	 l	 3.285	 GoodTrial	 allStim	 ra
29	 4	 1	 left	 LineStimuli//allStim/stimNo105r5c4v2.8.jpg	 r	 1.835	 GoodTrial	 allStim	 ra
30	 4	 1	 right	 LineStimuli//allStim/stimNo103r3c19v2.8.jpg	 r	 1.657	 GoodTrial	 allStim	 ra
31	 4	 0	 x	 LineStimuli//allStim/stimNo160r0c0v3.8.jpg	 l	 3.083	 GoodTrial	 allStim	 ra
32	 4	 1	 left	 LineStimuli//allStim/stimNo112r9c5v1.5.jpg	 l	 3.429	 GoodTrial	 allStim	 ra
33	 4	 0	 x	 LineStimuli//allStim/stimNo148r0c0v3.3.jpg	 l	 3.025	 GoodTrial	 allStim	 ra
34	 4	 1	 right	 LineStimuli//allStim/stimNo114r10c15v4.3.jpg	 r	 1.662	 GoodTrial	 allStim	 ra
35	 4	 0	 x	 LineStimuli//allStim/stimNo159r0c0v1.8.jpg	 l	 4.306	 GoodTrial	 allStim	 ra
36	 4	 0	 x	 LineStimuli//allStim/stimNo153r0c0v1.8.jpg	 l	 3.670	 GoodTrial	 allStim	 ra
37	 4	 1	 right	 LineStimuli//allStim/stimNo115r10c18v4.3.jpg	 r	 1.594	 GoodTrial	 allStim	 ra
38	 4	 1	 right	 LineStimuli//allStim/stimNo93r14c18v1.5.jpg	 r	 2.154	 GoodTrial	 allStim	 ra
39	 4	 0	 x	 LineStimuli//allStim/stimNo153r0c0v3.8.jpg	 l	 3.841	 GoodTrial	 allStim	 ra
40	 4	 0	 x	 LineStimuli//allStim/stimNo131r0c0v1.5.jpg	 l	 6.064	 GoodTrial	 allStim	 ra
41	 4	 1	 left	 LineStimuli//allStim/stimNo111r10c9v4.3.jpg	 r	 1.734	 GoodTrial	 allStim	 ra
42	 4	 0	 x	 LineStimuli//allStim/stimNo123r0c0v3.8.jpg	 l	 3.057	 GoodTrial	 allStim	 ra
43	 4	 0	 x	 LineStimuli//allStim/stimNo124r0c0v3.8.jpg	 l	 2.519	 GoodTrial	 allStim	 ra
44	 4	 1	 left	 LineStimuli//allStim/stimNo83r14c4v2.3.jpg	 r	 1.923	 GoodTrial	 allStim	 ra
45	 4	 0	 x	 LineStimuli//allStim/stimNo148r0c0v2.8.jpg	 l	 2.024	 GoodTrial	 allStim	 ra
46	 4	 1	 right	 LineStimuli//allStim/stimNo115r9c14v2.8.jpg	 r	 1.530	 GoodTrial	 allStim	 ra
47	 4	 0	 x	 LineStimuli//allStim/stimNo142r0c0v1.5.jpg	 l	 3.993	 GoodTrial	 allStim	 ra
48	 4	 1	 right	 LineStimuli//allStim/stimNo89r3c17v4.3.jpg	 r	 1.560	 GoodTrial	 allStim	 ra
49	 4	 0	 x	 LineStimuli//allStim/stimNo131r0c0v3.3.jpg	 l	 2.786	 GoodTrial	 allStim	 ra
50	 4	 0	 x	 LineStimuli//allStim/stimNo143r0c0v4.3.jpg	 l	 2.473	 GoodTrial	 allStim	 ra
1	 5	 0	 x	 LineStimuli//allStim/stimNo154r0c0v1.8.jpg	 l	 3.030	 GoodTrial	 allStim	 ra
2	 5	 1	 right	 LineStimuli//allStim/stimNo101r8c14v2.3.jpg	 r	 1.832	 GoodTrial	 allStim	 ra
3	 5	 0	 x	 LineStimuli//allStim/stimNo123r0c0v1.5.jpg	 l	 3.806	 GoodTrial	 allStim	 ra
4	 5	 0	 x	 LineStimuli//allStim/stimNo159r0c0v3.8.jpg	 l	 2.814	 GoodTrial	 allStim	 ra
5	 5	 1	 left	 LineStimuli//allStim/stimNo104r4c4v3.3.jpg	 r	 1.759	 GoodTrial	 allStim	 ra
6	 5	 0	 x	 LineStimuli//allStim/stimNo132r0c0v1.5.jpg	 l	 4.773	 GoodTrial	 allStim	 ra
7	 5	 1	 right	 LineStimuli//allStim/stimNo98r8c21v1.5.jpg	 r	 1.707	 GoodTrial	 allStim	 ra
8	 5	 0	 x	 LineStimuli//allStim/stimNo121r0c0v4.3.jpg	 l	 3.043	 GoodTrial	 allStim	 ra
9	 5	 0	 x	 LineStimuli//allStim/stimNo152r0c0v4.3.jpg	 l	 3.134	 GoodTrial	 allStim	 ra
10	 5	 0	 x	 LineStimuli//allStim/stimNo154r0c0v2.3.jpg	 l	 3.220	 GoodTrial	 allStim	 ra
11	 5	 1	 left	 LineStimuli//allStim/stimNo98r15c5v1.8.jpg	 r	 2.362	 GoodTrial	 allStim	 ra
12	 5	 1	 right	 LineStimuli//allStim/stimNo93r4c16v2.3.jpg	 r	 1.882	 GoodTrial	 allStim	 ra
13	 5	 0	 x	 LineStimuli//allStim/stimNo152r0c0v2.8.jpg	 l	 3.470	 GoodTrial	 allStim	 ra
14	 5	 1	 right	 LineStimuli//allStim/stimNo111r15c20v3.8.jpg	 r	 2.074	 GoodTrial	 allStim	 ra
15	 5	 0	 x	 LineStimuli//allStim/stimNo150r0c0v2.3.jpg	 l	 3.426	 GoodTrial	 allStim	 ra
16	 5	 1	 right	 LineStimuli//allStim/stimNo112r12c16v3.8.jpg	 r	 1.600	 GoodTrial	 allStim	 ra
17	 5	 1	 right	 LineStimuli//allStim/stimNo118r4c17v2.3.jpg	 r	 1.735	 GoodTrial	 allStim	 ra
18	 5	 0	 x	 LineStimuli//allStim/stimNo138r0c0v2.3.jpg	 l	 2.567	 GoodTrial	 allStim	 ra
19	 5	 1	 left	 LineStimuli//allStim/stimNo94r8c9v2.3.jpg	 r	 1.718	 GoodTrial	 allStim	 ra
20	 5	 1	 right	 LineStimuli//allStim/stimNo92r6c21v3.8.jpg	 r	 1.542	 GoodTrial	 allStim	 ra
21	 5	 1	 left	 LineStimuli//allStim/stimNo104r2c4v2.3.jpg	 r	 1.669	 GoodTrial	 allStim	 ra
22	 5	 1	 left	 LineStimuli//allStim/stimNo120r14c2v1.5.jpg	 l	 4.935	 GoodTrial	 allStim	 ra
23	 5	 1	 left	 LineStimuli//allStim/stimNo108r5c8v4.3.jpg	 r	 1.613	 GoodTrial	 allStim	 ra
24	 5	 1	 right	 LineStimuli//allStim/stimNo120r8c14v3.3.jpg	 r	 1.648	 GoodTrial	 allStim	 ra
25	 5	 1	 left	 LineStimuli//allStim/stimNo81r4c3v2.3.jpg	 r	 1.629	 GoodTrial	 allStim	 ra
26	 5	 0	 x	 LineStimuli//allStim/stimNo134r0c0v2.8.jpg	 l	 3.111	 GoodTrial	 allStim	 ra
27	 5	 1	 right	 LineStimuli//allStim/stimNo114r8c19v2.8.jpg	 r	 1.533	 GoodTrial	 allStim	 ra
28	 5	 1	 right	 LineStimuli//allStim/stimNo96r2c13v3.8.jpg	 r	 1.687	 GoodTrial	 allStim	 ra
29	 5	 0	 x	 LineStimuli//allStim/stimNo156r0c0v1.8.jpg	 l	 4.033	 GoodTrial	 allStim	 ra
30	 5	 0	 x	 LineStimuli//allStim/stimNo153r0c0v1.5.jpg	 l	 4.831	 GoodTrial	 allStim	 ra
31	 5	 1	 right	 LineStimuli//allStim/stimNo81r6c17v1.5.jpg	 r	 1.834	 GoodTrial	 allStim	 ra
32	 5	 0	 x	 LineStimuli//allStim/stimNo152r0c0v2.3.jpg	 l	 3.432	 GoodTrial	 allStim	 ra
33	 5	 1	 right	 LineStimuli//allStim/stimNo102r10c19v4.3.jpg	 r	 1.713	 GoodTrial	 allStim	 ra
34	 5	 1	 right	 LineStimuli//allStim/stimNo81r10c14v4.3.jpg	 r	 1.574	 GoodTrial	 allStim	 ra
35	 5	 0	 x	 LineStimuli//allStim/stimNo129r0c0v4.3.jpg	 l	 2.738	 GoodTrial	 allStim	 ra
36	 5	 0	 x	 LineStimuli//allStim/stimNo145r0c0v1.5.jpg	 l	 4.435	 GoodTrial	 allStim	 ra
37	 5	 0	 x	 LineStimuli//allStim/stimNo140r0c0v2.3.jpg	 l	 4.678	 GoodTrial	 allStim	 ra
38	 5	 0	 x	 LineStimuli//allStim/stimNo123r0c0v4.3.jpg	 l	 2.687	 GoodTrial	 allStim	 ra
39	 5	 1	 right	 LineStimuli//allStim/stimNo102r13c13v3.3.jpg	 r	 1.667	 GoodTrial	 allStim	 ra
40	 5	 0	 x	 LineStimuli//allStim/stimNo136r0c0v1.5.jpg	 l	 4.854	 GoodTrial	 allStim	 ra
41	 5	 0	 x	 LineStimuli//allStim/stimNo158r0c0v3.8.jpg	 l	 1.996	 GoodTrial	 allStim	 ra
42	 5	 0	 x	 LineStimuli//allStim/stimNo132r0c0v4.3.jpg	 l	 2.036	 GoodTrial	 allStim	 ra
43	 5	 1	 right	 LineStimuli//allStim/stimNo101r12c16v2.8.jpg	 r	 1.651	 GoodTrial	 allStim	 ra
44	 5	 1	 right	 LineStimuli//allStim/stimNo84r15c20v4.3.jpg	 r	 1.702	 GoodTrial	 allStim	 ra
45	 5	 1	 left	 LineStimuli//allStim/stimNo100r3c3v3.3.jpg	 r	 2.123	 GoodTrial	 allStim	 ra
46	 5	 0	 x	 LineStimuli//allStim/stimNo148r0c0v2.3.jpg	 l	 3.616	 GoodTrial	 allStim	 ra
47	 5	 1	 left	 LineStimuli//allStim/stimNo86r15c6v2.8.jpg	 r	 1.654	 GoodTrial	 allStim	 ra
48	 5	 1	 right	 LineStimuli//allStim/stimNo96r4c19v4.3.jpg	 r	 1.591	 GoodTrial	 allStim	 ra
49	 5	 0	 x	 LineStimuli//allStim/stimNo145r0c0v2.8.jpg	 l	 2.942	 GoodTrial	 allStim	 ra
50	 5	 0	 x	 LineStimuli//allStim/stimNo157r0c0v2.3.jpg	 l	 2.617	 GoodTrial	 allStim	 ra
1	 6	 0	 x	 LineStimuli//allStim/stimNo136r0c0v3.8.jpg	 l	 2.614	 GoodTrial	 allStim	 ra
2	 6	 0	 x	 LineStimuli//allStim/stimNo139r0c0v2.8.jpg	 l	 2.417	 GoodTrial	 allStim	 ra
3	 6	 1	 left	 LineStimuli//allStim/stimNo113r3c8v2.3.jpg	 r	 1.815	 GoodTrial	 allStim	 ra
4	 6	 1	 left	 LineStimuli//allStim/stimNo98r3c8v4.3.jpg	 r	 1.689	 GoodTrial	 allStim	 ra
5	 6	 1	 left	 LineStimuli//allStim/stimNo94r13c8v1.8.jpg	 r	 1.863	 GoodTrial	 allStim	 ra
6	 6	 0	 x	 LineStimuli//allStim/stimNo142r0c0v3.8.jpg	 l	 2.398	 GoodTrial	 allStim	 ra
7	 6	 1	 left	 LineStimuli//allStim/stimNo104r2c4v2.3.jpg	 r	 1.755	 GoodTrial	 allStim	 ra
8	 6	 0	 x	 LineStimuli//allStim/stimNo131r0c0v2.8.jpg	 l	 2.538	 GoodTrial	 allStim	 ra
9	 6	 1	 left	 LineStimuli//allStim/stimNo83r12c4v2.8.jpg	 r	 1.638	 GoodTrial	 allStim	 ra
10	 6	 0	 x	 LineStimuli//allStim/stimNo144r0c0v3.3.jpg	 l	 2.569	 GoodTrial	 allStim	 ra
11	 6	 0	 x	 LineStimuli//allStim/stimNo149r0c0v1.8.jpg	 l	 2.916	 GoodTrial	 allStim	 ra
12	 6	 0	 x	 LineStimuli//allStim/stimNo144r0c0v2.3.jpg	 l	 2.235	 GoodTrial	 allStim	 ra
13	 6	 1	 left	 LineStimuli//allStim/stimNo110r7c9v3.8.jpg	 r	 1.711	 GoodTrial	 allStim	 ra
14	 6	 1	 left	 LineStimuli//allStim/stimNo114r7c8v2.3.jpg	 r	 1.743	 GoodTrial	 allStim	 ra
15	 6	 0	 x	 LineStimuli//allStim/stimNo133r0c0v1.5.jpg	 l	 4.322	 GoodTrial	 allStim	 ra
16	 6	 1	 right	 LineStimuli//allStim/stimNo102r10c19v4.3.jpg	 r	 1.962	 GoodTrial	 allStim	 ra
17	 6	 0	 x	 LineStimuli//allStim/stimNo149r0c0v3.3.jpg	 l	 3.121	 GoodTrial	 allStim	 ra
18	 6	 0	 x	 LineStimuli//allStim/stimNo156r0c0v2.8.jpg	 l	 2.955	 GoodTrial	 allStim	 ra
19	 6	 1	 right	 LineStimuli//allStim/stimNo90r14c21v2.3.jpg	 r	 2.128	 GoodTrial	 allStim	 ra
20	 6	 0	 x	 LineStimuli//allStim/stimNo154r0c0v3.3.jpg	 l	 3.427	 GoodTrial	 allStim	 ra
21	 6	 0	 x	 LineStimuli//allStim/stimNo139r0c0v4.3.jpg	 l	 3.805	 GoodTrial	 allStim	 ra
22	 6	 0	 x	 LineStimuli//allStim/stimNo144r0c0v1.8.jpg	 l	 3.835	 GoodTrial	 allStim	 ra
23	 6	 0	 x	 LineStimuli//allStim/stimNo150r0c0v2.3.jpg	 l	 2.603	 GoodTrial	 allStim	 ra
24	 6	 0	 x	 LineStimuli//allStim/stimNo154r0c0v3.8.jpg	 l	 2.415	 GoodTrial	 allStim	 ra
25	 6	 1	 left	 LineStimuli//allStim/stimNo85r2c5v1.5.jpg	 r	 4.053	 GoodTrial	 allStim	 ra
26	 6	 1	 left	 LineStimuli//allStim/stimNo91r9c3v1.5.jpg	 r	 2.858	 GoodTrial	 allStim	 ra
27	 6	 0	 x	 LineStimuli//allStim/stimNo142r0c0v3.3.jpg	 l	 5.046	 GoodTrial	 allStim	 ra
28	 6	 0	 x	 LineStimuli//allStim/stimNo145r0c0v2.3.jpg	 l	 4.971	 GoodTrial	 allStim	 ra
29	 6	 1	 left	 LineStimuli//allStim/stimNo81r15c8v3.3.jpg	 r	 1.824	 GoodTrial	 allStim	 ra
30	 6	 1	 right	 LineStimuli//allStim/stimNo100r8c13v2.8.jpg	 r	 1.638	 GoodTrial	 allStim	 ra
31	 6	 0	 x	 LineStimuli//allStim/stimNo152r0c0v3.3.jpg	 l	 3.479	 GoodTrial	 allStim	 ra
32	 6	 0	 x	 LineStimuli//allStim/stimNo146r0c0v1.5.jpg	 l	 4.900	 GoodTrial	 allStim	 ra
33	 6	 1	 right	 LineStimuli//allStim/stimNo85r4c15v2.8.jpg	 r	 1.629	 GoodTrial	 allStim	 ra
34	 6	 1	 left	 LineStimuli//allStim/stimNo119r15c7v3.3.jpg	 r	 1.660	 GoodTrial	 allStim	 ra
35	 6	 1	 left	 LineStimuli//allStim/stimNo94r13c7v2.8.jpg	 r	 1.574	 GoodTrial	 allStim	 ra
36	 6	 1	 left	 LineStimuli//allStim/stimNo120r5c3v3.8.jpg	 r	 1.628	 GoodTrial	 allStim	 ra
37	 6	 1	 right	 LineStimuli//allStim/stimNo95r6c14v1.5.jpg	 r	 1.771	 GoodTrial	 allStim	 ra
38	 6	 1	 left	 LineStimuli//allStim/stimNo86r8c9v2.3.jpg	 r	 1.653	 GoodTrial	 allStim	 ra
39	 6	 1	 left	 LineStimuli//allStim/stimNo102r3c2v2.8.jpg	 r	 1.941	 GoodTrial	 allStim	 ra
40	 6	 0	 x	 LineStimuli//allStim/stimNo145r0c0v1.5.jpg	 l	 5.695	 GoodTrial	 allStim	 ra
41	 6	 0	 x	 LineStimuli//allStim/stimNo140r0c0v2.8.jpg	 l	 3.296	 GoodTrial	 allStim	 ra
42	 6	 0	 x	 LineStimuli//allStim/stimNo126r0c0v2.8.jpg	 l	 2.900	 GoodTrial	 allStim	 ra
43	 6	 1	 left	 LineStimuli//allStim/stimNo85r3c5v4.3.jpg	 r	 1.630	 GoodTrial	 allStim	 ra
44	 6	 0	 x	 LineStimuli//allStim/stimNo126r0c0v1.8.jpg	 l	 2.614	 GoodTrial	 allStim	 ra
45	 6	 1	 left	 LineStimuli//allStim/stimNo84r3c9v2.8.jpg	 l	 2.302	 GoodTrial	 allStim	 ra
46	 6	 1	 left	 LineStimuli//allStim/stimNo94r14c9v3.3.jpg	 r	 1.821	 GoodTrial	 allStim	 ra
47	 6	 0	 x	 LineStimuli//allStim/stimNo147r0c0v2.8.jpg	 l	 2.465	 GoodTrial	 allStim	 ra
48	 6	 1	 left	 LineStimuli//allStim/stimNo105r14c6v4.3.jpg	 r	 1.638	 GoodTrial	 allStim	 ra
49	 6	 0	 x	 LineStimuli//allStim/stimNo121r0c0v2.8.jpg	 l	 3.256	 GoodTrial	 allStim	 ra
50	 6	 0	 x	 LineStimuli//allStim/stimNo140r0c0v1.8.jpg	 l	 3.153	 GoodTrial	 allStim	 ra
1	 7	 0	 x	 LineStimuli//allStim/stimNo139r0c0v3.8.jpg	 l	 2.211	 GoodTrial	 allStim	 ra
2	 7	 1	 right	 LineStimuli//allStim/stimNo96r4c19v4.3.jpg	 r	 1.561	 GoodTrial	 allStim	 ra
3	 7	 1	 left	 LineStimuli//allStim/stimNo87r14c2v1.8.jpg	 r	 2.359	 GoodTrial	 allStim	 ra
4	 7	 0	 x	 LineStimuli//allStim/stimNo128r0c0v2.8.jpg	 l	 3.191	 GoodTrial	 allStim	 ra
5	 7	 1	 right	 LineStimuli//allStim/stimNo82r9c21v3.8.jpg	 r	 1.630	 GoodTrial	 allStim	 ra
6	 7	 0	 x	 LineStimuli//allStim/stimNo137r0c0v2.3.jpg	 l	 2.607	 GoodTrial	 allStim	 ra
7	 7	 1	 right	 LineStimuli//allStim/stimNo112r12c16v3.8.jpg	 r	 1.604	 GoodTrial	 allStim	 ra
8	 7	 0	 x	 LineStimuli//allStim/stimNo126r0c0v3.3.jpg	 l	 2.930	 GoodTrial	 allStim	 ra
9	 7	 0	 x	 LineStimuli//allStim/stimNo151r0c0v3.3.jpg	 l	 2.844	 GoodTrial	 allStim	 ra
10	 7	 0	 x	 LineStimuli//allStim/stimNo153r0c0v2.3.jpg	 l	 2.929	 GoodTrial	 allStim	 ra
11	 7	 0	 x	 LineStimuli//allStim/stimNo149r0c0v3.3.jpg	 l	 2.365	 GoodTrial	 allStim	 ra
12	 7	 1	 right	 LineStimuli//allStim/stimNo81r10c14v4.3.jpg	 r	 1.605	 GoodTrial	 allStim	 ra
13	 7	 1	 right	 LineStimuli//allStim/stimNo120r8c20v2.8.jpg	 r	 1.621	 GoodTrial	 allStim	 ra
14	 7	 0	 x	 LineStimuli//allStim/stimNo123r0c0v2.8.jpg	 l	 3.370	 GoodTrial	 allStim	 ra
15	 7	 0	 x	 LineStimuli//allStim/stimNo125r0c0v2.3.jpg	 l	 2.592	 GoodTrial	 allStim	 ra
16	 7	 0	 x	 LineStimuli//allStim/stimNo140r0c0v1.5.jpg	 l	 7.705	 GoodTrial	 allStim	 ra
17	 7	 1	 right	 LineStimuli//allStim/stimNo112r10c16v4.3.jpg	 r	 1.549	 GoodTrial	 allStim	 ra
18	 7	 1	 right	 LineStimuli//allStim/stimNo82r7c18v1.8.jpg	 r	 3.294	 GoodTrial	 allStim	 ra
19	 7	 1	 right	 LineStimuli//allStim/stimNo95r9c18v2.8.jpg	 r	 1.644	 GoodTrial	 allStim	 ra
20	 7	 0	 x	 LineStimuli//allStim/stimNo144r0c0v1.5.jpg	 l	 4.752	 GoodTrial	 allStim	 ra
21	 7	 0	 x	 LineStimuli//allStim/stimNo138r0c0v2.8.jpg	 l	 2.688	 GoodTrial	 allStim	 ra
22	 7	 1	 right	 LineStimuli//allStim/stimNo84r15c20v4.3.jpg	 r	 1.989	 GoodTrial	 allStim	 ra
23	 7	 1	 right	 LineStimuli//allStim/stimNo114r10c15v4.3.jpg	 r	 1.736	 GoodTrial	 allStim	 ra
24	 7	 1	 left	 LineStimuli//allStim/stimNo91r2c3v2.8.jpg	 r	 2.480	 GoodTrial	 allStim	 ra
25	 7	 0	 x	 LineStimuli//allStim/stimNo144r0c0v3.3.jpg	 l	 2.426	 GoodTrial	 allStim	 ra
26	 7	 1	 left	 LineStimuli//allStim/stimNo100r13c6v3.8.jpg	 r	 1.602	 GoodTrial	 allStim	 ra
27	 7	 1	 left	 LineStimuli//allStim/stimNo87r3c5v4.3.jpg	 r	 1.525	 GoodTrial	 allStim	 ra
28	 7	 0	 x	 LineStimuli//allStim/stimNo122r0c0v3.8.jpg	 l	 2.938	 GoodTrial	 allStim	 ra
29	 7	 0	 x	 LineStimuli//allStim/stimNo151r0c0v3.8.jpg	 l	 2.336	 GoodTrial	 allStim	 ra
30	 7	 0	 x	 LineStimuli//allStim/stimNo122r0c0v2.3.jpg	 l	 2.699	 GoodTrial	 allStim	 ra
31	 7	 0	 x	 LineStimuli//allStim/stimNo133r0c0v2.3.jpg	 l	 2.088	 GoodTrial	 allStim	 ra
32	 7	 1	 right	 LineStimuli//allStim/stimNo102r14c17v1.8.jpg	 r	 1.856	 GoodTrial	 allStim	 ra
33	 7	 0	 x	 LineStimuli//allStim/stimNo131r0c0v4.3.jpg	 l	 3.518	 GoodTrial	 allStim	 ra
34	 7	 0	 x	 LineStimuli//allStim/stimNo144r0c0v2.3.jpg	 l	 2.107	 GoodTrial	 allStim	 ra
35	 7	 1	 left	 LineStimuli//allStim/stimNo106r8c2v4.3.jpg	 r	 1.789	 GoodTrial	 allStim	 ra
36	 7	 1	 left	 LineStimuli//allStim/stimNo110r7c3v1.5.jpg	 l	 3.603	 GoodTrial	 allStim	 ra
37	 7	 1	 left	 LineStimuli//allStim/stimNo113r14c9v3.8.jpg	 r	 1.782	 GoodTrial	 allStim	 ra
38	 7	 1	 right	 LineStimuli//allStim/stimNo90r15c13v1.8.jpg	 r	 2.153	 GoodTrial	 allStim	 ra
39	 7	 1	 left	 LineStimuli//allStim/stimNo86r7c7v3.8.jpg	 r	 1.616	 GoodTrial	 allStim	 ra
40	 7	 1	 left	 LineStimuli//allStim/stimNo93r9c9v4.3.jpg	 r	 1.553	 GoodTrial	 allStim	 ra
41	 7	 0	 x	 LineStimuli//allStim/stimNo125r0c0v1.5.jpg	 l	 3.487	 GoodTrial	 allStim	 ra
42	 7	 0	 x	 LineStimuli//allStim/stimNo145r0c0v4.3.jpg	 l	 2.319	 GoodTrial	 allStim	 ra
43	 7	 1	 left	 LineStimuli//allStim/stimNo89r8c9v1.5.jpg	 l	 4.816	 GoodTrial	 allStim	 ra
44	 7	 1	 left	 LineStimuli//allStim/stimNo115r3c4v3.3.jpg	 r	 1.626	 GoodTrial	 allStim	 ra
45	 7	 1	 left	 LineStimuli//allStim/stimNo87r11c8v2.8.jpg	 r	 1.741	 GoodTrial	 allStim	 ra
46	 7	 0	 x	 LineStimuli//allStim/stimNo151r0c0v2.8.jpg	 l	 2.797	 GoodTrial	 allStim	 ra
47	 7	 1	 left	 LineStimuli//allStim/stimNo105r5c4v2.8.jpg	 r	 1.589	 GoodTrial	 allStim	 ra
48	 7	 1	 right	 LineStimuli//allStim/stimNo90r3c15v1.5.jpg	 r	 1.727	 GoodTrial	 allStim	 ra
49	 7	 1	 left	 LineStimuli//allStim/stimNo110r7c9v3.8.jpg	 r	 1.662	 GoodTrial	 allStim	 ra
50	 7	 0	 x	 LineStimuli//allStim/stimNo152r0c0v1.5.jpg	 l	 3.831	 GoodTrial	 allStim	 ra
