Trial	Block	Target_pr	Target_side	Name	Key	RT	Message	Block_Type	Condition
1	 1	 1	 right	 LineStimuli//3.3/stimNo87r15c13v3.3.jpg	 l	 2.919	 GoodTrial	 3.3	 bl
2	 1	 0	 x	 LineStimuli//3.3/stimNo141r0c0v3.3.jpg	 r	 3.895	 GoodTrial	 3.3	 bl
3	 1	 0	 x	 LineStimuli//3.3/stimNo160r0c0v3.3.jpg	 r	 4.539	 GoodTrial	 3.3	 bl
4	 1	 1	 left	 LineStimuli//3.3/stimNo100r3c3v3.3.jpg	 l	 1.556	 GoodTrial	 3.3	 bl
5	 1	 1	 left	 LineStimuli//3.3/stimNo117r2c5v3.3.jpg	 l	 1.551	 GoodTrial	 3.3	 bl
6	 1	 0	 x	 LineStimuli//3.3/stimNo151r0c0v3.3.jpg	 r	 2.847	 GoodTrial	 3.3	 bl
7	 1	 0	 x	 LineStimuli//3.3/stimNo138r0c0v3.3.jpg	 r	 3.272	 GoodTrial	 3.3	 bl
8	 1	 1	 right	 LineStimuli//3.3/stimNo118r3c16v3.3.jpg	 l	 1.623	 GoodTrial	 3.3	 bl
9	 1	 0	 x	 LineStimuli//3.3/stimNo154r0c0v3.3.jpg	 r	 4.249	 GoodTrial	 3.3	 bl
10	 1	 0	 x	 LineStimuli//3.3/stimNo130r0c0v3.3.jpg	 r	 3.385	 GoodTrial	 3.3	 bl
11	 1	 1	 left	 LineStimuli//3.3/stimNo111r15c7v3.3.jpg	 l	 2.069	 GoodTrial	 3.3	 bl
12	 1	 1	 right	 LineStimuli//3.3/stimNo112r5c15v3.3.jpg	 l	 1.601	 GoodTrial	 3.3	 bl
13	 1	 0	 x	 LineStimuli//3.3/stimNo149r0c0v3.3.jpg	 r	 3.197	 GoodTrial	 3.3	 bl
14	 1	 1	 right	 LineStimuli//3.3/stimNo102r13c13v3.3.jpg	 l	 1.929	 GoodTrial	 3.3	 bl
15	 1	 0	 x	 LineStimuli//3.3/stimNo135r0c0v3.3.jpg	 r	 3.104	 GoodTrial	 3.3	 bl
16	 1	 1	 left	 LineStimuli//3.3/stimNo106r9c9v3.3.jpg	 l	 1.687	 GoodTrial	 3.3	 bl
17	 1	 0	 x	 LineStimuli//3.3/stimNo144r0c0v3.3.jpg	 r	 3.738	 GoodTrial	 3.3	 bl
18	 1	 0	 x	 LineStimuli//3.3/stimNo128r0c0v3.3.jpg	 r	 3.602	 GoodTrial	 3.3	 bl
19	 1	 0	 x	 LineStimuli//3.3/stimNo124r0c0v3.3.jpg	 r	 3.782	 GoodTrial	 3.3	 bl
20	 1	 1	 right	 LineStimuli//3.3/stimNo84r6c16v3.3.jpg	 l	 1.513	 GoodTrial	 3.3	 bl
21	 1	 0	 x	 LineStimuli//3.3/stimNo132r0c0v3.3.jpg	 r	 2.576	 GoodTrial	 3.3	 bl
22	 1	 1	 right	 LineStimuli//3.3/stimNo105r7c20v3.3.jpg	 l	 1.623	 GoodTrial	 3.3	 bl
23	 1	 1	 left	 LineStimuli//3.3/stimNo108r13c2v3.3.jpg	 l	 1.833	 GoodTrial	 3.3	 bl
24	 1	 1	 left	 LineStimuli//3.3/stimNo104r4c4v3.3.jpg	 l	 1.595	 GoodTrial	 3.3	 bl
25	 1	 0	 x	 LineStimuli//3.3/stimNo122r0c0v3.3.jpg	 r	 3.191	 GoodTrial	 3.3	 bl
26	 1	 0	 x	 LineStimuli//3.3/stimNo158r0c0v3.3.jpg	 r	 3.883	 GoodTrial	 3.3	 bl
27	 1	 1	 left	 LineStimuli//3.3/stimNo110r4c3v3.3.jpg	 l	 1.674	 GoodTrial	 3.3	 bl
28	 1	 0	 x	 LineStimuli//3.3/stimNo131r0c0v3.3.jpg	 r	 3.551	 GoodTrial	 3.3	 bl
29	 1	 1	 left	 LineStimuli//3.3/stimNo95r15c8v3.3.jpg	 l	 1.895	 GoodTrial	 3.3	 bl
30	 1	 1	 left	 LineStimuli//3.3/stimNo83r8c3v3.3.jpg	 l	 1.602	 GoodTrial	 3.3	 bl
31	 1	 1	 right	 LineStimuli//3.3/stimNo82r11c20v3.3.jpg	 l	 1.663	 GoodTrial	 3.3	 bl
32	 1	 1	 left	 LineStimuli//3.3/stimNo92r10c7v3.3.jpg	 l	 1.773	 GoodTrial	 3.3	 bl
33	 1	 1	 right	 LineStimuli//3.3/stimNo91r12c16v3.3.jpg	 l	 1.615	 GoodTrial	 3.3	 bl
34	 1	 0	 x	 LineStimuli//3.3/stimNo126r0c0v3.3.jpg	 r	 3.488	 GoodTrial	 3.3	 bl
35	 1	 0	 x	 LineStimuli//3.3/stimNo123r0c0v3.3.jpg	 r	 3.274	 GoodTrial	 3.3	 bl
36	 1	 1	 left	 LineStimuli//3.3/stimNo109r15c7v3.3.jpg	 l	 1.674	 GoodTrial	 3.3	 bl
37	 1	 1	 right	 LineStimuli//3.3/stimNo99r6c17v3.3.jpg	 l	 1.635	 GoodTrial	 3.3	 bl
38	 1	 1	 right	 LineStimuli//3.3/stimNo120r8c14v3.3.jpg	 l	 1.574	 GoodTrial	 3.3	 bl
39	 1	 0	 x	 LineStimuli//3.3/stimNo139r0c0v3.3.jpg	 r	 3.074	 GoodTrial	 3.3	 bl
40	 1	 1	 right	 LineStimuli//3.3/stimNo101r7c16v3.3.jpg	 l	 1.576	 GoodTrial	 3.3	 bl
41	 1	 1	 right	 LineStimuli//3.3/stimNo88r9c14v3.3.jpg	 l	 1.609	 GoodTrial	 3.3	 bl
42	 1	 0	 x	 LineStimuli//3.3/stimNo156r0c0v3.3.jpg	 r	 2.674	 GoodTrial	 3.3	 bl
43	 1	 0	 x	 LineStimuli//3.3/stimNo137r0c0v3.3.jpg	 r	 4.035	 GoodTrial	 3.3	 bl
44	 1	 0	 x	 LineStimuli//3.3/stimNo125r0c0v3.3.jpg	 r	 4.391	 GoodTrial	 3.3	 bl
45	 1	 1	 right	 LineStimuli//3.3/stimNo114r11c21v3.3.jpg	 l	 1.577	 GoodTrial	 3.3	 bl
46	 1	 0	 x	 LineStimuli//3.3/stimNo152r0c0v3.3.jpg	 r	 4.249	 GoodTrial	 3.3	 bl
47	 1	 1	 left	 LineStimuli//3.3/stimNo86r5c7v3.3.jpg	 l	 1.634	 GoodTrial	 3.3	 bl
48	 1	 0	 x	 LineStimuli//3.3/stimNo136r0c0v3.3.jpg	 r	 4.037	 GoodTrial	 3.3	 bl
49	 1	 1	 left	 LineStimuli//3.3/stimNo93r3c5v3.3.jpg	 l	 1.553	 GoodTrial	 3.3	 bl
50	 1	 1	 right	 LineStimuli//3.3/stimNo107r2c17v3.3.jpg	 l	 1.557	 GoodTrial	 3.3	 bl
1	 2	 1	 right	 LineStimuli//2.3/stimNo103r11c21v2.3.jpg	 l	 1.958	 GoodTrial	 2.3	 bl
2	 2	 0	 x	 LineStimuli//2.3/stimNo124r0c0v2.3.jpg	 r	 3.927	 GoodTrial	 2.3	 bl
3	 2	 0	 x	 LineStimuli//2.3/stimNo158r0c0v2.3.jpg	 r	 5.314	 GoodTrial	 2.3	 bl
4	 2	 1	 right	 LineStimuli//2.3/stimNo84r15c14v2.3.jpg	 l	 2.159	 GoodTrial	 2.3	 bl
5	 2	 1	 right	 LineStimuli//2.3/stimNo87r13c19v2.3.jpg	 l	 1.885	 GoodTrial	 2.3	 bl
6	 2	 0	 x	 LineStimuli//2.3/stimNo137r0c0v2.3.jpg	 r	 4.233	 GoodTrial	 2.3	 bl
7	 2	 1	 left	 LineStimuli//2.3/stimNo119r3c2v2.3.jpg	 l	 1.637	 GoodTrial	 2.3	 bl
8	 2	 0	 x	 LineStimuli//2.3/stimNo151r0c0v2.3.jpg	 r	 3.541	 GoodTrial	 2.3	 bl
9	 2	 0	 x	 LineStimuli//2.3/stimNo142r0c0v2.3.jpg	 r	 3.604	 GoodTrial	 2.3	 bl
10	 2	 1	 left	 LineStimuli//2.3/stimNo106r9c9v2.3.jpg	 l	 2.403	 GoodTrial	 2.3	 bl
11	 2	 1	 right	 LineStimuli//2.3/stimNo111r11c21v2.3.jpg	 l	 2.216	 GoodTrial	 2.3	 bl
12	 2	 0	 x	 LineStimuli//2.3/stimNo160r0c0v2.3.jpg	 r	 3.097	 GoodTrial	 2.3	 bl
13	 2	 0	 x	 LineStimuli//2.3/stimNo127r0c0v2.3.jpg	 r	 2.727	 GoodTrial	 2.3	 bl
14	 2	 0	 x	 LineStimuli//2.3/stimNo123r0c0v2.3.jpg	 r	 3.246	 GoodTrial	 2.3	 bl
15	 2	 1	 left	 LineStimuli//2.3/stimNo113r3c8v2.3.jpg	 l	 1.871	 GoodTrial	 2.3	 bl
16	 2	 0	 x	 LineStimuli//2.3/stimNo139r0c0v2.3.jpg	 r	 3.107	 GoodTrial	 2.3	 bl
17	 2	 1	 right	 LineStimuli//2.3/stimNo105r14c14v2.3.jpg	 l	 1.853	 GoodTrial	 2.3	 bl
18	 2	 0	 x	 LineStimuli//2.3/stimNo152r0c0v2.3.jpg	 r	 3.436	 GoodTrial	 2.3	 bl
19	 2	 0	 x	 LineStimuli//2.3/stimNo149r0c0v2.3.jpg	 r	 3.615	 GoodTrial	 2.3	 bl
20	 2	 0	 x	 LineStimuli//2.3/stimNo144r0c0v2.3.jpg	 r	 3.998	 GoodTrial	 2.3	 bl
21	 2	 1	 right	 LineStimuli//2.3/stimNo91r11c20v2.3.jpg	 l	 1.853	 GoodTrial	 2.3	 bl
22	 2	 0	 x	 LineStimuli//2.3/stimNo150r0c0v2.3.jpg	 r	 4.325	 GoodTrial	 2.3	 bl
23	 2	 1	 right	 LineStimuli//2.3/stimNo93r4c16v2.3.jpg	 l	 1.653	 GoodTrial	 2.3	 bl
24	 2	 1	 left	 LineStimuli//2.3/stimNo82r12c4v2.3.jpg	 r	 3.316	 GoodTrial	 2.3	 bl
25	 2	 0	 x	 LineStimuli//2.3/stimNo146r0c0v2.3.jpg	 r	 3.880	 GoodTrial	 2.3	 bl
26	 2	 0	 x	 LineStimuli//2.3/stimNo131r0c0v2.3.jpg	 r	 4.529	 GoodTrial	 2.3	 bl
27	 2	 0	 x	 LineStimuli//2.3/stimNo125r0c0v2.3.jpg	 r	 4.794	 GoodTrial	 2.3	 bl
28	 2	 1	 left	 LineStimuli//2.3/stimNo108r15c6v2.3.jpg	 l	 2.052	 GoodTrial	 2.3	 bl
29	 2	 1	 right	 LineStimuli//2.3/stimNo110r15c19v2.3.jpg	 l	 2.120	 GoodTrial	 2.3	 bl
30	 2	 0	 x	 LineStimuli//2.3/stimNo134r0c0v2.3.jpg	 r	 3.642	 GoodTrial	 2.3	 bl
31	 2	 1	 right	 LineStimuli//2.3/stimNo109r2c17v2.3.jpg	 l	 1.668	 GoodTrial	 2.3	 bl
32	 2	 0	 x	 LineStimuli//2.3/stimNo159r0c0v2.3.jpg	 r	 3.308	 GoodTrial	 2.3	 bl
33	 2	 1	 right	 LineStimuli//2.3/stimNo107r11c15v2.3.jpg	 l	 1.764	 GoodTrial	 2.3	 bl
34	 2	 1	 left	 LineStimuli//2.3/stimNo97r3c3v2.3.jpg	 l	 1.800	 GoodTrial	 2.3	 bl
35	 2	 1	 left	 LineStimuli//2.3/stimNo94r8c9v2.3.jpg	 l	 3.176	 GoodTrial	 2.3	 bl
36	 2	 1	 right	 LineStimuli//2.3/stimNo90r14c21v2.3.jpg	 l	 1.858	 GoodTrial	 2.3	 bl
37	 2	 0	 x	 LineStimuli//2.3/stimNo138r0c0v2.3.jpg	 r	 3.245	 GoodTrial	 2.3	 bl
38	 2	 0	 x	 LineStimuli//2.3/stimNo145r0c0v2.3.jpg	 r	 4.304	 GoodTrial	 2.3	 bl
39	 2	 1	 left	 LineStimuli//2.3/stimNo100r8c6v2.3.jpg	 l	 1.736	 GoodTrial	 2.3	 bl
40	 2	 1	 right	 LineStimuli//2.3/stimNo85r4c15v2.3.jpg	 l	 1.684	 GoodTrial	 2.3	 bl
41	 2	 1	 left	 LineStimuli//2.3/stimNo117r11c8v2.3.jpg	 l	 2.449	 GoodTrial	 2.3	 bl
42	 2	 1	 left	 LineStimuli//2.3/stimNo112r3c2v2.3.jpg	 l	 1.624	 GoodTrial	 2.3	 bl
43	 2	 1	 left	 LineStimuli//2.3/stimNo86r8c9v2.3.jpg	 l	 1.977	 GoodTrial	 2.3	 bl
44	 2	 0	 x	 LineStimuli//2.3/stimNo143r0c0v2.3.jpg	 r	 3.580	 GoodTrial	 2.3	 bl
45	 2	 1	 left	 LineStimuli//2.3/stimNo104r2c4v2.3.jpg	 l	 1.584	 GoodTrial	 2.3	 bl
46	 2	 1	 left	 LineStimuli//2.3/stimNo81r4c3v2.3.jpg	 l	 1.552	 GoodTrial	 2.3	 bl
47	 2	 1	 left	 LineStimuli//2.3/stimNo114r7c8v2.3.jpg	 l	 1.904	 GoodTrial	 2.3	 bl
48	 2	 0	 x	 LineStimuli//2.3/stimNo148r0c0v2.3.jpg	 r	 2.927	 GoodTrial	 2.3	 bl
49	 2	 0	 x	 LineStimuli//2.3/stimNo155r0c0v2.3.jpg	 r	 3.056	 GoodTrial	 2.3	 bl
50	 2	 0	 x	 LineStimuli//2.3/stimNo147r0c0v2.3.jpg	 r	 3.120	 GoodTrial	 2.3	 bl
1	 3	 1	 right	 LineStimuli//1.8/stimNo118r11c15v1.8.jpg	 l	 2.321	 GoodTrial	 1.8	 bl
2	 3	 0	 x	 LineStimuli//1.8/stimNo137r0c0v1.8.jpg	 r	 2.975	 GoodTrial	 1.8	 bl
3	 3	 1	 right	 LineStimuli//1.8/stimNo100r9c13v1.8.jpg	 l	 2.118	 GoodTrial	 1.8	 bl
4	 3	 0	 x	 LineStimuli//1.8/stimNo150r0c0v1.8.jpg	 r	 3.891	 GoodTrial	 1.8	 bl
5	 3	 1	 left	 LineStimuli//1.8/stimNo86r14c4v1.8.jpg	 r	 4.967	 GoodTrial	 1.8	 bl
6	 3	 0	 x	 LineStimuli//1.8/stimNo128r0c0v1.8.jpg	 r	 5.757	 GoodTrial	 1.8	 bl
7	 3	 0	 x	 LineStimuli//1.8/stimNo139r0c0v1.8.jpg	 r	 4.288	 GoodTrial	 1.8	 bl
8	 3	 1	 left	 LineStimuli//1.8/stimNo87r14c2v1.8.jpg	 r	 4.687	 GoodTrial	 1.8	 bl
9	 3	 0	 x	 LineStimuli//1.8/stimNo133r0c0v1.8.jpg	 r	 8.756	 GoodTrial	 1.8	 bl
10	 3	 1	 right	 LineStimuli//1.8/stimNo99r12c16v1.8.jpg	 r	 7.465	 GoodTrial	 1.8	 bl
11	 3	 1	 left	 LineStimuli//1.8/stimNo98r15c5v1.8.jpg	 r	 7.089	 GoodTrial	 1.8	 bl
12	 3	 0	 x	 LineStimuli//1.8/stimNo129r0c0v1.8.jpg	 r	 6.613	 GoodTrial	 1.8	 bl
13	 3	 0	 x	 LineStimuli//1.8/stimNo154r0c0v1.8.jpg	 r	 4.696	 GoodTrial	 1.8	 bl
14	 3	 1	 left	 LineStimuli//1.8/stimNo110r4c7v1.8.jpg	 l	 2.020	 GoodTrial	 1.8	 bl
15	 3	 0	 x	 LineStimuli//1.8/stimNo124r0c0v1.8.jpg	 r	 6.319	 GoodTrial	 1.8	 bl
16	 3	 0	 x	 LineStimuli//1.8/stimNo125r0c0v1.8.jpg	 r	 6.736	 GoodTrial	 1.8	 bl
17	 3	 0	 x	 LineStimuli//1.8/stimNo145r0c0v1.8.jpg	 r	 7.313	 GoodTrial	 1.8	 bl
18	 3	 1	 left	 LineStimuli//1.8/stimNo106r13c9v1.8.jpg	 l	 6.121	 GoodTrial	 1.8	 bl
19	 3	 1	 right	 LineStimuli//1.8/stimNo108r9c21v1.8.jpg	 r	 6.397	 GoodTrial	 1.8	 bl
20	 3	 0	 x	 LineStimuli//1.8/stimNo140r0c0v1.8.jpg	 r	 6.632	 GoodTrial	 1.8	 bl
21	 3	 1	 left	 LineStimuli//1.8/stimNo94r13c8v1.8.jpg	 r	 7.068	 GoodTrial	 1.8	 bl
22	 3	 0	 x	 LineStimuli//1.8/stimNo143r0c0v1.8.jpg	 r	 5.610	 GoodTrial	 1.8	 bl
23	 3	 0	 x	 LineStimuli//1.8/stimNo131r0c0v1.8.jpg	 r	 5.896	 GoodTrial	 1.8	 bl
24	 3	 1	 right	 LineStimuli//1.8/stimNo90r15c13v1.8.jpg	 r	 5.467	 GoodTrial	 1.8	 bl
25	 3	 1	 right	 LineStimuli//1.8/stimNo82r7c18v1.8.jpg	 l	 2.296	 GoodTrial	 1.8	 bl
26	 3	 1	 left	 LineStimuli//1.8/stimNo105r6c5v1.8.jpg	 l	 1.882	 GoodTrial	 1.8	 bl
27	 3	 0	 x	 LineStimuli//1.8/stimNo130r0c0v1.8.jpg	 r	 4.923	 GoodTrial	 1.8	 bl
28	 3	 1	 right	 LineStimuli//1.8/stimNo83r6c13v1.8.jpg	 l	 4.889	 GoodTrial	 1.8	 bl
29	 3	 0	 x	 LineStimuli//1.8/stimNo155r0c0v1.8.jpg	 r	 4.260	 GoodTrial	 1.8	 bl
30	 3	 0	 x	 LineStimuli//1.8/stimNo159r0c0v1.8.jpg	 r	 6.507	 GoodTrial	 1.8	 bl
31	 3	 0	 x	 LineStimuli//1.8/stimNo136r0c0v1.8.jpg	 r	 5.656	 GoodTrial	 1.8	 bl
32	 3	 1	 left	 LineStimuli//1.8/stimNo107r5c4v1.8.jpg	 l	 1.723	 GoodTrial	 1.8	 bl
33	 3	 0	 x	 LineStimuli//1.8/stimNo121r0c0v1.8.jpg	 r	 4.585	 GoodTrial	 1.8	 bl
34	 3	 1	 left	 LineStimuli//1.8/stimNo95r4c9v1.8.jpg	 l	 4.400	 GoodTrial	 1.8	 bl
35	 3	 0	 x	 LineStimuli//1.8/stimNo122r0c0v1.8.jpg	 r	 5.376	 GoodTrial	 1.8	 bl
36	 3	 1	 left	 LineStimuli//1.8/stimNo96r13c2v1.8.jpg	 r	 5.507	 GoodTrial	 1.8	 bl
37	 3	 0	 x	 LineStimuli//1.8/stimNo123r0c0v1.8.jpg	 r	 6.758	 GoodTrial	 1.8	 bl
38	 3	 1	 right	 LineStimuli//1.8/stimNo104r3c21v1.8.jpg	 l	 1.823	 GoodTrial	 1.8	 bl
39	 3	 1	 right	 LineStimuli//1.8/stimNo112r6c15v1.8.jpg	 l	 1.613	 GoodTrial	 1.8	 bl
40	 3	 1	 left	 LineStimuli//1.8/stimNo81r6c8v1.8.jpg	 l	 1.876	 GoodTrial	 1.8	 bl
41	 3	 1	 right	 LineStimuli//1.8/stimNo101r4c13v1.8.jpg	 l	 1.968	 GoodTrial	 1.8	 bl
42	 3	 0	 x	 LineStimuli//1.8/stimNo134r0c0v1.8.jpg	 r	 4.581	 GoodTrial	 1.8	 bl
43	 3	 1	 left	 LineStimuli//1.8/stimNo103r15c10v1.8.jpg	 r	 4.901	 GoodTrial	 1.8	 bl
44	 3	 0	 x	 LineStimuli//1.8/stimNo144r0c0v1.8.jpg	 r	 4.976	 GoodTrial	 1.8	 bl
45	 3	 1	 left	 LineStimuli//1.8/stimNo91r14c4v1.8.jpg	 r	 4.737	 GoodTrial	 1.8	 bl
46	 3	 1	 right	 LineStimuli//1.8/stimNo114r8c13v1.8.jpg	 l	 1.624	 GoodTrial	 1.8	 bl
47	 3	 1	 left	 LineStimuli//1.8/stimNo89r11c6v1.8.jpg	 l	 4.395	 GoodTrial	 1.8	 bl
48	 3	 1	 left	 LineStimuli//1.8/stimNo115r5c9v1.8.jpg	 l	 1.683	 GoodTrial	 1.8	 bl
49	 3	 1	 left	 LineStimuli//1.8/stimNo116r4c7v1.8.jpg	 l	 1.686	 GoodTrial	 1.8	 bl
50	 3	 1	 left	 LineStimuli//1.8/stimNo88r15c9v1.8.jpg	 r	 5.440	 GoodTrial	 1.8	 bl
1	 4	 1	 right	 LineStimuli//2.8/stimNo112r13c17v2.8.jpg	 l	 1.971	 GoodTrial	 2.8	 bl
2	 4	 0	 x	 LineStimuli//2.8/stimNo124r0c0v2.8.jpg	 r	 2.836	 GoodTrial	 2.8	 bl
3	 4	 1	 left	 LineStimuli//2.8/stimNo119r8c5v2.8.jpg	 l	 1.744	 GoodTrial	 2.8	 bl
4	 4	 0	 x	 LineStimuli//2.8/stimNo151r0c0v2.8.jpg	 r	 2.379	 GoodTrial	 2.8	 bl
5	 4	 1	 right	 LineStimuli//2.8/stimNo103r3c19v2.8.jpg	 l	 1.571	 GoodTrial	 2.8	 bl
6	 4	 0	 x	 LineStimuli//2.8/stimNo128r0c0v2.8.jpg	 r	 2.053	 GoodTrial	 2.8	 bl
7	 4	 0	 x	 LineStimuli//2.8/stimNo132r0c0v2.8.jpg	 r	 2.264	 GoodTrial	 2.8	 bl
8	 4	 0	 x	 LineStimuli//2.8/stimNo127r0c0v2.8.jpg	 r	 2.178	 GoodTrial	 2.8	 bl
9	 4	 1	 right	 LineStimuli//2.8/stimNo120r8c20v2.8.jpg	 l	 1.518	 GoodTrial	 2.8	 bl
10	 4	 1	 right	 LineStimuli//2.8/stimNo111r9c15v2.8.jpg	 l	 1.991	 GoodTrial	 2.8	 bl
11	 4	 0	 x	 LineStimuli//2.8/stimNo121r0c0v2.8.jpg	 r	 2.377	 GoodTrial	 2.8	 bl
12	 4	 1	 right	 LineStimuli//2.8/stimNo106r13c20v2.8.jpg	 l	 1.694	 GoodTrial	 2.8	 bl
13	 4	 0	 x	 LineStimuli//2.8/stimNo153r0c0v2.8.jpg	 r	 2.232	 GoodTrial	 2.8	 bl
14	 4	 1	 right	 LineStimuli//2.8/stimNo115r9c14v2.8.jpg	 l	 1.498	 GoodTrial	 2.8	 bl
15	 4	 0	 x	 LineStimuli//2.8/stimNo139r0c0v2.8.jpg	 r	 2.528	 GoodTrial	 2.8	 bl
16	 4	 0	 x	 LineStimuli//2.8/stimNo154r0c0v2.8.jpg	 r	 2.456	 GoodTrial	 2.8	 bl
17	 4	 0	 x	 LineStimuli//2.8/stimNo135r0c0v2.8.jpg	 r	 2.132	 GoodTrial	 2.8	 bl
18	 4	 1	 left	 LineStimuli//2.8/stimNo97r11c4v2.8.jpg	 l	 1.884	 GoodTrial	 2.8	 bl
19	 4	 1	 right	 LineStimuli//2.8/stimNo93r9c20v2.8.jpg	 l	 1.612	 GoodTrial	 2.8	 bl
20	 4	 0	 x	 LineStimuli//2.8/stimNo145r0c0v2.8.jpg	 r	 2.047	 GoodTrial	 2.8	 bl
21	 4	 1	 right	 LineStimuli//2.8/stimNo95r9c18v2.8.jpg	 l	 1.448	 GoodTrial	 2.8	 bl
22	 4	 0	 x	 LineStimuli//2.8/stimNo148r0c0v2.8.jpg	 r	 1.982	 GoodTrial	 2.8	 bl
23	 4	 0	 x	 LineStimuli//2.8/stimNo158r0c0v2.8.jpg	 r	 1.818	 GoodTrial	 2.8	 bl
24	 4	 1	 left	 LineStimuli//2.8/stimNo94r13c7v2.8.jpg	 l	 2.041	 GoodTrial	 2.8	 bl
25	 4	 1	 left	 LineStimuli//2.8/stimNo91r2c3v2.8.jpg	 l	 1.609	 GoodTrial	 2.8	 bl
26	 4	 1	 left	 LineStimuli//2.8/stimNo84r3c9v2.8.jpg	 l	 1.714	 GoodTrial	 2.8	 bl
27	 4	 0	 x	 LineStimuli//2.8/stimNo136r0c0v2.8.jpg	 r	 2.404	 GoodTrial	 2.8	 bl
28	 4	 0	 x	 LineStimuli//2.8/stimNo149r0c0v2.8.jpg	 r	 2.126	 GoodTrial	 2.8	 bl
29	 4	 0	 x	 LineStimuli//2.8/stimNo142r0c0v2.8.jpg	 r	 1.951	 GoodTrial	 2.8	 bl
30	 4	 0	 x	 LineStimuli//2.8/stimNo125r0c0v2.8.jpg	 r	 3.510	 GoodTrial	 2.8	 bl
31	 4	 0	 x	 LineStimuli//2.8/stimNo155r0c0v2.8.jpg	 r	 4.089	 GoodTrial	 2.8	 bl
32	 4	 0	 x	 LineStimuli//2.8/stimNo130r0c0v2.8.jpg	 r	 3.444	 GoodTrial	 2.8	 bl
33	 4	 1	 left	 LineStimuli//2.8/stimNo82r4c6v2.8.jpg	 l	 1.565	 GoodTrial	 2.8	 bl
34	 4	 0	 x	 LineStimuli//2.8/stimNo160r0c0v2.8.jpg	 r	 2.351	 GoodTrial	 2.8	 bl
35	 4	 0	 x	 LineStimuli//2.8/stimNo131r0c0v2.8.jpg	 r	 2.310	 GoodTrial	 2.8	 bl
36	 4	 0	 x	 LineStimuli//2.8/stimNo122r0c0v2.8.jpg	 r	 2.248	 GoodTrial	 2.8	 bl
37	 4	 0	 x	 LineStimuli//2.8/stimNo138r0c0v2.8.jpg	 r	 2.051	 GoodTrial	 2.8	 bl
38	 4	 0	 x	 LineStimuli//2.8/stimNo143r0c0v2.8.jpg	 r	 2.273	 GoodTrial	 2.8	 bl
39	 4	 0	 x	 LineStimuli//2.8/stimNo140r0c0v2.8.jpg	 r	 2.120	 GoodTrial	 2.8	 bl
40	 4	 0	 x	 LineStimuli//2.8/stimNo144r0c0v2.8.jpg	 r	 2.118	 GoodTrial	 2.8	 bl
41	 4	 1	 left	 LineStimuli//2.8/stimNo89r12c4v2.8.jpg	 l	 1.984	 GoodTrial	 2.8	 bl
42	 4	 0	 x	 LineStimuli//2.8/stimNo126r0c0v2.8.jpg	 r	 2.117	 GoodTrial	 2.8	 bl
43	 4	 1	 right	 LineStimuli//2.8/stimNo85r4c15v2.8.jpg	 l	 1.503	 GoodTrial	 2.8	 bl
44	 4	 0	 x	 LineStimuli//2.8/stimNo137r0c0v2.8.jpg	 r	 2.688	 GoodTrial	 2.8	 bl
45	 4	 1	 left	 LineStimuli//2.8/stimNo113r9c5v2.8.jpg	 l	 1.710	 GoodTrial	 2.8	 bl
46	 4	 0	 x	 LineStimuli//2.8/stimNo134r0c0v2.8.jpg	 r	 2.467	 GoodTrial	 2.8	 bl
47	 4	 1	 left	 LineStimuli//2.8/stimNo96r6c9v2.8.jpg	 l	 1.600	 GoodTrial	 2.8	 bl
48	 4	 0	 x	 LineStimuli//2.8/stimNo129r0c0v2.8.jpg	 r	 2.398	 GoodTrial	 2.8	 bl
49	 4	 0	 x	 LineStimuli//2.8/stimNo156r0c0v2.8.jpg	 r	 3.564	 GoodTrial	 2.8	 bl
50	 4	 1	 left	 LineStimuli//2.8/stimNo88r15c3v2.8.jpg	 l	 2.154	 GoodTrial	 2.8	 bl
1	 5	 1	 right	 LineStimuli//1.5/stimNo107r2c19v1.5.jpg	 r	 3.380	 GoodTrial	 1.5	 bl
2	 5	 1	 right	 LineStimuli//1.5/stimNo119r6c19v1.5.jpg	 r	 5.154	 GoodTrial	 1.5	 bl
3	 5	 1	 left	 LineStimuli//1.5/stimNo89r8c9v1.5.jpg	 r	 5.260	 GoodTrial	 1.5	 bl
4	 5	 0	 x	 LineStimuli//1.5/stimNo159r0c0v1.5.jpg	 r	 5.049	 GoodTrial	 1.5	 bl
5	 5	 0	 x	 LineStimuli//1.5/stimNo151r0c0v1.5.jpg	 r	 5.412	 GoodTrial	 1.5	 bl
6	 5	 1	 left	 LineStimuli//1.5/stimNo88r6c7v1.5.jpg	 l	 2.294	 GoodTrial	 1.5	 bl
7	 5	 1	 right	 LineStimuli//1.5/stimNo104r5c18v1.5.jpg	 l	 1.867	 GoodTrial	 1.5	 bl
8	 5	 1	 left	 LineStimuli//1.5/stimNo120r14c2v1.5.jpg	 r	 4.733	 GoodTrial	 1.5	 bl
9	 5	 1	 left	 LineStimuli//1.5/stimNo83r12c7v1.5.jpg	 r	 5.120	 GoodTrial	 1.5	 bl
10	 5	 0	 x	 LineStimuli//1.5/stimNo128r0c0v1.5.jpg	 l	 3.292	 GoodTrial	 1.5	 bl
11	 5	 1	 left	 LineStimuli//1.5/stimNo110r7c3v1.5.jpg	 r	 5.073	 GoodTrial	 1.5	 bl
12	 5	 0	 x	 LineStimuli//1.5/stimNo152r0c0v1.5.jpg	 r	 5.545	 GoodTrial	 1.5	 bl
13	 5	 1	 left	 LineStimuli//1.5/stimNo96r15c4v1.5.jpg	 r	 5.176	 GoodTrial	 1.5	 bl
14	 5	 0	 x	 LineStimuli//1.5/stimNo155r0c0v1.5.jpg	 r	 5.141	 GoodTrial	 1.5	 bl
15	 5	 0	 x	 LineStimuli//1.5/stimNo153r0c0v1.5.jpg	 r	 4.860	 GoodTrial	 1.5	 bl
16	 5	 1	 left	 LineStimuli//1.5/stimNo85r2c5v1.5.jpg	 r	 5.197	 GoodTrial	 1.5	 bl
17	 5	 1	 right	 LineStimuli//1.5/stimNo101r5c20v1.5.jpg	 l	 2.129	 GoodTrial	 1.5	 bl
18	 5	 0	 x	 LineStimuli//1.5/stimNo143r0c0v1.5.jpg	 r	 4.544	 GoodTrial	 1.5	 bl
19	 5	 1	 right	 LineStimuli//1.5/stimNo118r9c20v1.5.jpg	 r	 4.876	 GoodTrial	 1.5	 bl
20	 5	 1	 left	 LineStimuli//1.5/stimNo113r4c4v1.5.jpg	 r	 6.747	 GoodTrial	 1.5	 bl
21	 5	 1	 left	 LineStimuli//1.5/stimNo99r10c3v1.5.jpg	 r	 4.368	 GoodTrial	 1.5	 bl
22	 5	 0	 x	 LineStimuli//1.5/stimNo142r0c0v1.5.jpg	 r	 4.728	 GoodTrial	 1.5	 bl
23	 5	 0	 x	 LineStimuli//1.5/stimNo121r0c0v1.5.jpg	 r	 4.667	 GoodTrial	 1.5	 bl
24	 5	 0	 x	 LineStimuli//1.5/stimNo137r0c0v1.5.jpg	 r	 5.127	 GoodTrial	 1.5	 bl
25	 5	 0	 x	 LineStimuli//1.5/stimNo150r0c0v1.5.jpg	 r	 4.887	 GoodTrial	 1.5	 bl
26	 5	 0	 x	 LineStimuli//1.5/stimNo145r0c0v1.5.jpg	 r	 5.058	 GoodTrial	 1.5	 bl
27	 5	 0	 x	 LineStimuli//1.5/stimNo129r0c0v1.5.jpg	 r	 5.995	 GoodTrial	 1.5	 bl
28	 5	 0	 x	 LineStimuli//1.5/stimNo147r0c0v1.5.jpg	 r	 4.954	 GoodTrial	 1.5	 bl
29	 5	 0	 x	 LineStimuli//1.5/stimNo132r0c0v1.5.jpg	 r	 5.336	 GoodTrial	 1.5	 bl
30	 5	 0	 x	 LineStimuli//1.5/stimNo144r0c0v1.5.jpg	 r	 3.661	 GoodTrial	 1.5	 bl
31	 5	 0	 x	 LineStimuli//1.5/stimNo135r0c0v1.5.jpg	 r	 4.934	 GoodTrial	 1.5	 bl
32	 5	 0	 x	 LineStimuli//1.5/stimNo157r0c0v1.5.jpg	 r	 3.662	 GoodTrial	 1.5	 bl
33	 5	 1	 left	 LineStimuli//1.5/stimNo87r12c5v1.5.jpg	 r	 4.807	 GoodTrial	 1.5	 bl
34	 5	 1	 right	 LineStimuli//1.5/stimNo103r13c17v1.5.jpg	 r	 5.742	 GoodTrial	 1.5	 bl
35	 5	 1	 right	 LineStimuli//1.5/stimNo92r6c18v1.5.jpg	 r	 4.831	 GoodTrial	 1.5	 bl
36	 5	 1	 right	 LineStimuli//1.5/stimNo108r13c15v1.5.jpg	 r	 5.723	 GoodTrial	 1.5	 bl
37	 5	 0	 x	 LineStimuli//1.5/stimNo122r0c0v1.5.jpg	 r	 6.474	 GoodTrial	 1.5	 bl
38	 5	 0	 x	 LineStimuli//1.5/stimNo131r0c0v1.5.jpg	 r	 4.928	 GoodTrial	 1.5	 bl
39	 5	 0	 x	 LineStimuli//1.5/stimNo158r0c0v1.5.jpg	 r	 4.721	 GoodTrial	 1.5	 bl
40	 5	 1	 left	 LineStimuli//1.5/stimNo112r9c5v1.5.jpg	 r	 5.088	 GoodTrial	 1.5	 bl
41	 5	 1	 right	 LineStimuli//1.5/stimNo111r7c17v1.5.jpg	 l	 5.249	 GoodTrial	 1.5	 bl
42	 5	 1	 right	 LineStimuli//1.5/stimNo86r6c16v1.5.jpg	 l	 4.720	 GoodTrial	 1.5	 bl
43	 5	 1	 left	 LineStimuli//1.5/stimNo94r10c6v1.5.jpg	 r	 4.196	 GoodTrial	 1.5	 bl
44	 5	 1	 right	 LineStimuli//1.5/stimNo100r6c20v1.5.jpg	 l	 1.844	 GoodTrial	 1.5	 bl
45	 5	 1	 right	 LineStimuli//1.5/stimNo105r3c18v1.5.jpg	 l	 1.776	 GoodTrial	 1.5	 bl
46	 5	 0	 x	 LineStimuli//1.5/stimNo146r0c0v1.5.jpg	 r	 3.424	 GoodTrial	 1.5	 bl
47	 5	 1	 left	 LineStimuli//1.5/stimNo109r8c6v1.5.jpg	 l	 2.126	 GoodTrial	 1.5	 bl
48	 5	 1	 left	 LineStimuli//1.5/stimNo97r15c6v1.5.jpg	 r	 3.070	 GoodTrial	 1.5	 bl
49	 5	 0	 x	 LineStimuli//1.5/stimNo160r0c0v1.5.jpg	 r	 3.760	 GoodTrial	 1.5	 bl
50	 5	 1	 left	 LineStimuli//1.5/stimNo106r3c7v1.5.jpg	 r	 3.792	 GoodTrial	 1.5	 bl
1	 6	 1	 right	 LineStimuli//3.8/stimNo88r10c17v3.8.jpg	 l	 1.573	 GoodTrial	 3.8	 bl
2	 6	 0	 x	 LineStimuli//3.8/stimNo150r0c0v3.8.jpg	 r	 1.859	 GoodTrial	 3.8	 bl
3	 6	 0	 x	 LineStimuli//3.8/stimNo144r0c0v3.8.jpg	 r	 1.659	 GoodTrial	 3.8	 bl
4	 6	 0	 x	 LineStimuli//3.8/stimNo129r0c0v3.8.jpg	 r	 1.692	 GoodTrial	 3.8	 bl
5	 6	 1	 right	 LineStimuli//3.8/stimNo114r10c14v3.8.jpg	 l	 1.548	 GoodTrial	 3.8	 bl
6	 6	 1	 left	 LineStimuli//3.8/stimNo105r2c6v3.8.jpg	 l	 1.574	 GoodTrial	 3.8	 bl
7	 6	 0	 x	 LineStimuli//3.8/stimNo146r0c0v3.8.jpg	 r	 1.626	 GoodTrial	 3.8	 bl
8	 6	 0	 x	 LineStimuli//3.8/stimNo140r0c0v3.8.jpg	 r	 1.735	 GoodTrial	 3.8	 bl
9	 6	 0	 x	 LineStimuli//3.8/stimNo145r0c0v3.8.jpg	 r	 1.531	 GoodTrial	 3.8	 bl
10	 6	 0	 x	 LineStimuli//3.8/stimNo139r0c0v3.8.jpg	 r	 1.789	 GoodTrial	 3.8	 bl
11	 6	 1	 right	 LineStimuli//3.8/stimNo99r2c13v3.8.jpg	 l	 1.560	 GoodTrial	 3.8	 bl
12	 6	 0	 x	 LineStimuli//3.8/stimNo122r0c0v3.8.jpg	 r	 1.561	 GoodTrial	 3.8	 bl
13	 6	 1	 right	 LineStimuli//3.8/stimNo82r9c21v3.8.jpg	 l	 1.687	 GoodTrial	 3.8	 bl
14	 6	 0	 x	 LineStimuli//3.8/stimNo153r0c0v3.8.jpg	 r	 1.547	 GoodTrial	 3.8	 bl
15	 6	 1	 left	 LineStimuli//3.8/stimNo93r8c2v3.8.jpg	 l	 1.543	 GoodTrial	 3.8	 bl
16	 6	 0	 x	 LineStimuli//3.8/stimNo143r0c0v3.8.jpg	 r	 1.777	 GoodTrial	 3.8	 bl
17	 6	 1	 right	 LineStimuli//3.8/stimNo111r15c20v3.8.jpg	 l	 1.943	 GoodTrial	 3.8	 bl
18	 6	 0	 x	 LineStimuli//3.8/stimNo147r0c0v3.8.jpg	 r	 1.801	 GoodTrial	 3.8	 bl
19	 6	 0	 x	 LineStimuli//3.8/stimNo152r0c0v3.8.jpg	 r	 1.653	 GoodTrial	 3.8	 bl
20	 6	 0	 x	 LineStimuli//3.8/stimNo123r0c0v3.8.jpg	 r	 1.601	 GoodTrial	 3.8	 bl
21	 6	 1	 left	 LineStimuli//3.8/stimNo98r2c9v3.8.jpg	 l	 1.599	 GoodTrial	 3.8	 bl
22	 6	 0	 x	 LineStimuli//3.8/stimNo121r0c0v3.8.jpg	 r	 1.731	 GoodTrial	 3.8	 bl
23	 6	 1	 right	 LineStimuli//3.8/stimNo90r8c17v3.8.jpg	 l	 1.455	 GoodTrial	 3.8	 bl
24	 6	 1	 left	 LineStimuli//3.8/stimNo119r9c8v3.8.jpg	 l	 1.483	 GoodTrial	 3.8	 bl
25	 6	 1	 right	 LineStimuli//3.8/stimNo117r6c17v3.8.jpg	 l	 1.521	 GoodTrial	 3.8	 bl
26	 6	 1	 left	 LineStimuli//3.8/stimNo83r9c9v3.8.jpg	 l	 1.909	 GoodTrial	 3.8	 bl
27	 6	 1	 left	 LineStimuli//3.8/stimNo108r3c6v3.8.jpg	 l	 1.466	 GoodTrial	 3.8	 bl
28	 6	 1	 left	 LineStimuli//3.8/stimNo89r10c7v3.8.jpg	 l	 1.545	 GoodTrial	 3.8	 bl
29	 6	 1	 right	 LineStimuli//3.8/stimNo81r3c21v3.8.jpg	 l	 1.481	 GoodTrial	 3.8	 bl
30	 6	 1	 right	 LineStimuli//3.8/stimNo101r12c17v3.8.jpg	 l	 2.384	 GoodTrial	 3.8	 bl
31	 6	 1	 left	 LineStimuli//3.8/stimNo113r14c9v3.8.jpg	 l	 1.568	 GoodTrial	 3.8	 bl
32	 6	 0	 x	 LineStimuli//3.8/stimNo134r0c0v3.8.jpg	 r	 2.062	 GoodTrial	 3.8	 bl
33	 6	 0	 x	 LineStimuli//3.8/stimNo132r0c0v3.8.jpg	 r	 1.706	 GoodTrial	 3.8	 bl
34	 6	 1	 right	 LineStimuli//3.8/stimNo102r10c17v3.8.jpg	 l	 1.456	 GoodTrial	 3.8	 bl
35	 6	 0	 x	 LineStimuli//3.8/stimNo157r0c0v3.8.jpg	 r	 2.082	 GoodTrial	 3.8	 bl
36	 6	 0	 x	 LineStimuli//3.8/stimNo138r0c0v3.8.jpg	 r	 1.823	 GoodTrial	 3.8	 bl
37	 6	 0	 x	 LineStimuli//3.8/stimNo151r0c0v3.8.jpg	 r	 1.871	 GoodTrial	 3.8	 bl
38	 6	 0	 x	 LineStimuli//3.8/stimNo131r0c0v3.8.jpg	 r	 1.655	 GoodTrial	 3.8	 bl
39	 6	 1	 right	 LineStimuli//3.8/stimNo94r6c17v3.8.jpg	 l	 1.561	 GoodTrial	 3.8	 bl
40	 6	 0	 x	 LineStimuli//3.8/stimNo155r0c0v3.8.jpg	 r	 1.747	 GoodTrial	 3.8	 bl
41	 6	 0	 x	 LineStimuli//3.8/stimNo149r0c0v3.8.jpg	 r	 1.615	 GoodTrial	 3.8	 bl
42	 6	 1	 right	 LineStimuli//3.8/stimNo92r6c21v3.8.jpg	 l	 1.543	 GoodTrial	 3.8	 bl
43	 6	 1	 left	 LineStimuli//3.8/stimNo103r11c7v3.8.jpg	 l	 1.773	 GoodTrial	 3.8	 bl
44	 6	 0	 x	 LineStimuli//3.8/stimNo160r0c0v3.8.jpg	 r	 1.631	 GoodTrial	 3.8	 bl
45	 6	 1	 right	 LineStimuli//3.8/stimNo91r10c16v3.8.jpg	 l	 1.587	 GoodTrial	 3.8	 bl
46	 6	 0	 x	 LineStimuli//3.8/stimNo127r0c0v3.8.jpg	 r	 1.631	 GoodTrial	 3.8	 bl
47	 6	 1	 left	 LineStimuli//3.8/stimNo109r11c8v3.8.jpg	 l	 1.567	 GoodTrial	 3.8	 bl
48	 6	 1	 left	 LineStimuli//3.8/stimNo110r7c9v3.8.jpg	 l	 1.597	 GoodTrial	 3.8	 bl
49	 6	 0	 x	 LineStimuli//3.8/stimNo154r0c0v3.8.jpg	 r	 1.625	 GoodTrial	 3.8	 bl
50	 6	 0	 x	 LineStimuli//3.8/stimNo125r0c0v3.8.jpg	 r	 1.770	 GoodTrial	 3.8	 bl
1	 7	 1	 right	 LineStimuli//4.3/stimNo82r7c18v4.3.jpg	 l	 1.794	 GoodTrial	 4.3	 bl
2	 7	 1	 left	 LineStimuli//4.3/stimNo106r8c2v4.3.jpg	 l	 1.691	 GoodTrial	 4.3	 bl
3	 7	 0	 x	 LineStimuli//4.3/stimNo159r0c0v4.3.jpg	 r	 1.631	 GoodTrial	 4.3	 bl
4	 7	 0	 x	 LineStimuli//4.3/stimNo158r0c0v4.3.jpg	 r	 1.635	 GoodTrial	 4.3	 bl
5	 7	 1	 right	 LineStimuli//4.3/stimNo94r12c13v4.3.jpg	 l	 1.655	 GoodTrial	 4.3	 bl
6	 7	 1	 right	 LineStimuli//4.3/stimNo117r10c21v4.3.jpg	 l	 1.506	 GoodTrial	 4.3	 bl
7	 7	 0	 x	 LineStimuli//4.3/stimNo138r0c0v4.3.jpg	 r	 1.566	 GoodTrial	 4.3	 bl
8	 7	 0	 x	 LineStimuli//4.3/stimNo127r0c0v4.3.jpg	 r	 1.627	 GoodTrial	 4.3	 bl
9	 7	 0	 x	 LineStimuli//4.3/stimNo122r0c0v4.3.jpg	 r	 1.494	 GoodTrial	 4.3	 bl
10	 7	 1	 left	 LineStimuli//4.3/stimNo93r9c9v4.3.jpg	 l	 1.523	 GoodTrial	 4.3	 bl
11	 7	 0	 x	 LineStimuli//4.3/stimNo136r0c0v4.3.jpg	 r	 1.514	 GoodTrial	 4.3	 bl
12	 7	 1	 right	 LineStimuli//4.3/stimNo84r15c20v4.3.jpg	 l	 1.655	 GoodTrial	 4.3	 bl
13	 7	 0	 x	 LineStimuli//4.3/stimNo139r0c0v4.3.jpg	 r	 1.571	 GoodTrial	 4.3	 bl
14	 7	 1	 left	 LineStimuli//4.3/stimNo83r4c2v4.3.jpg	 l	 1.500	 GoodTrial	 4.3	 bl
15	 7	 1	 left	 LineStimuli//4.3/stimNo107r2c8v4.3.jpg	 l	 1.568	 GoodTrial	 4.3	 bl
16	 7	 1	 right	 LineStimuli//4.3/stimNo91r9c13v4.3.jpg	 l	 1.703	 GoodTrial	 4.3	 bl
17	 7	 1	 left	 LineStimuli//4.3/stimNo86r7c3v4.3.jpg	 l	 1.549	 GoodTrial	 4.3	 bl
18	 7	 1	 right	 LineStimuli//4.3/stimNo99r14c18v4.3.jpg	 l	 1.511	 GoodTrial	 4.3	 bl
19	 7	 1	 right	 LineStimuli//4.3/stimNo118r11c13v4.3.jpg	 l	 1.451	 GoodTrial	 4.3	 bl
20	 7	 1	 right	 LineStimuli//4.3/stimNo81r10c14v4.3.jpg	 l	 1.345	 GoodTrial	 4.3	 bl
21	 7	 0	 x	 LineStimuli//4.3/stimNo160r0c0v4.3.jpg	 r	 1.504	 GoodTrial	 4.3	 bl
22	 7	 0	 x	 LineStimuli//4.3/stimNo143r0c0v4.3.jpg	 r	 1.810	 GoodTrial	 4.3	 bl
23	 7	 0	 x	 LineStimuli//4.3/stimNo151r0c0v4.3.jpg	 r	 1.527	 GoodTrial	 4.3	 bl
24	 7	 0	 x	 LineStimuli//4.3/stimNo130r0c0v4.3.jpg	 r	 1.480	 GoodTrial	 4.3	 bl
25	 7	 1	 left	 LineStimuli//4.3/stimNo105r14c6v4.3.jpg	 l	 1.535	 GoodTrial	 4.3	 bl
26	 7	 0	 x	 LineStimuli//4.3/stimNo150r0c0v4.3.jpg	 r	 1.483	 GoodTrial	 4.3	 bl
27	 7	 1	 right	 LineStimuli//4.3/stimNo97r6c21v4.3.jpg	 l	 1.508	 GoodTrial	 4.3	 bl
28	 7	 1	 left	 LineStimuli//4.3/stimNo101r5c5v4.3.jpg	 l	 1.481	 GoodTrial	 4.3	 bl
29	 7	 0	 x	 LineStimuli//4.3/stimNo135r0c0v4.3.jpg	 r	 1.708	 GoodTrial	 4.3	 bl
30	 7	 0	 x	 LineStimuli//4.3/stimNo137r0c0v4.3.jpg	 r	 1.496	 GoodTrial	 4.3	 bl
31	 7	 0	 x	 LineStimuli//4.3/stimNo131r0c0v4.3.jpg	 r	 1.802	 GoodTrial	 4.3	 bl
32	 7	 0	 x	 LineStimuli//4.3/stimNo146r0c0v4.3.jpg	 r	 1.484	 GoodTrial	 4.3	 bl
33	 7	 0	 x	 LineStimuli//4.3/stimNo149r0c0v4.3.jpg	 r	 1.510	 GoodTrial	 4.3	 bl
34	 7	 0	 x	 LineStimuli//4.3/stimNo148r0c0v4.3.jpg	 r	 1.512	 GoodTrial	 4.3	 bl
35	 7	 0	 x	 LineStimuli//4.3/stimNo125r0c0v4.3.jpg	 r	 1.638	 GoodTrial	 4.3	 bl
36	 7	 0	 x	 LineStimuli//4.3/stimNo157r0c0v4.3.jpg	 r	 1.456	 GoodTrial	 4.3	 bl
37	 7	 1	 right	 LineStimuli//4.3/stimNo120r8c18v4.3.jpg	 l	 1.474	 GoodTrial	 4.3	 bl
38	 7	 0	 x	 LineStimuli//4.3/stimNo154r0c0v4.3.jpg	 r	 1.442	 GoodTrial	 4.3	 bl
39	 7	 1	 left	 LineStimuli//4.3/stimNo104r15c2v4.3.jpg	 l	 1.708	 GoodTrial	 4.3	 bl
40	 7	 0	 x	 LineStimuli//4.3/stimNo129r0c0v4.3.jpg	 r	 1.563	 GoodTrial	 4.3	 bl
41	 7	 0	 x	 LineStimuli//4.3/stimNo156r0c0v4.3.jpg	 r	 1.605	 GoodTrial	 4.3	 bl
42	 7	 1	 right	 LineStimuli//4.3/stimNo96r4c19v4.3.jpg	 l	 1.396	 GoodTrial	 4.3	 bl
43	 7	 1	 right	 LineStimuli//4.3/stimNo89r3c17v4.3.jpg	 l	 1.456	 GoodTrial	 4.3	 bl
44	 7	 0	 x	 LineStimuli//4.3/stimNo121r0c0v4.3.jpg	 r	 1.530	 GoodTrial	 4.3	 bl
45	 7	 0	 x	 LineStimuli//4.3/stimNo141r0c0v4.3.jpg	 r	 1.544	 GoodTrial	 4.3	 bl
46	 7	 1	 left	 LineStimuli//4.3/stimNo100r8c3v4.3.jpg	 l	 1.544	 GoodTrial	 4.3	 bl
47	 7	 1	 right	 LineStimuli//4.3/stimNo109r15c15v4.3.jpg	 l	 1.588	 GoodTrial	 4.3	 bl
48	 7	 1	 left	 LineStimuli//4.3/stimNo110r6c7v4.3.jpg	 l	 1.422	 GoodTrial	 4.3	 bl
49	 7	 0	 x	 LineStimuli//4.3/stimNo142r0c0v4.3.jpg	 r	 1.612	 GoodTrial	 4.3	 bl
50	 7	 1	 left	 LineStimuli//4.3/stimNo88r10c3v4.3.jpg	 l	 1.522	 GoodTrial	 4.3	 bl
