Trial	Block	Target_pr	Target_side	Name	Key	RT	Message	Block_Type	Condition
1	 1	 0	 x	 LineStimuli//1.8/stimNo125r0c0v1.8.jpg	 r	 3.509	 GoodTrial	 1.8	 bl
2	 1	 1	 left	 LineStimuli//1.8/stimNo115r5c9v1.8.jpg	 l	 3.391	 GoodTrial	 1.8	 bl
3	 1	 1	 right	 LineStimuli//1.8/stimNo109r7c17v1.8.jpg	 r	 2.095	 GoodTrial	 1.8	 bl
4	 1	 1	 right	 LineStimuli//1.8/stimNo97r15c18v1.8.jpg	 r	 2.534	 GoodTrial	 1.8	 bl
5	 1	 0	 x	 LineStimuli//1.8/stimNo147r0c0v1.8.jpg	 r	 2.699	 GoodTrial	 1.8	 bl
6	 1	 0	 x	 LineStimuli//1.8/stimNo126r0c0v1.8.jpg	 r	 3.818	 GoodTrial	 1.8	 bl
7	 1	 1	 right	 LineStimuli//1.8/stimNo119r3c21v1.8.jpg	 l	 1.789	 GoodTrial	 1.8	 bl
8	 1	 1	 left	 LineStimuli//1.8/stimNo96r13c2v1.8.jpg	 l	 1.755	 GoodTrial	 1.8	 bl
9	 1	 0	 x	 LineStimuli//1.8/stimNo159r0c0v1.8.jpg	 r	 2.475	 GoodTrial	 1.8	 bl
10	 1	 1	 left	 LineStimuli//1.8/stimNo87r14c2v1.8.jpg	 l	 2.525	 GoodTrial	 1.8	 bl
11	 1	 1	 left	 LineStimuli//1.8/stimNo120r14c9v1.8.jpg	 l	 1.792	 GoodTrial	 1.8	 bl
12	 1	 0	 x	 LineStimuli//1.8/stimNo143r0c0v1.8.jpg	 r	 2.967	 GoodTrial	 1.8	 bl
13	 1	 1	 left	 LineStimuli//1.8/stimNo95r4c9v1.8.jpg	 r	 2.428	 GoodTrial	 1.8	 bl
14	 1	 0	 x	 LineStimuli//1.8/stimNo127r0c0v1.8.jpg	 r	 3.824	 GoodTrial	 1.8	 bl
15	 1	 1	 right	 LineStimuli//1.8/stimNo118r11c15v1.8.jpg	 l	 1.970	 GoodTrial	 1.8	 bl
16	 1	 0	 x	 LineStimuli//1.8/stimNo136r0c0v1.8.jpg	 r	 3.364	 GoodTrial	 1.8	 bl
17	 1	 1	 left	 LineStimuli//1.8/stimNo105r6c5v1.8.jpg	 l	 1.764	 GoodTrial	 1.8	 bl
18	 1	 0	 x	 LineStimuli//1.8/stimNo124r0c0v1.8.jpg	 r	 3.952	 GoodTrial	 1.8	 bl
19	 1	 0	 x	 LineStimuli//1.8/stimNo148r0c0v1.8.jpg	 r	 3.071	 GoodTrial	 1.8	 bl
20	 1	 0	 x	 LineStimuli//1.8/stimNo135r0c0v1.8.jpg	 r	 2.360	 GoodTrial	 1.8	 bl
21	 1	 0	 x	 LineStimuli//1.8/stimNo122r0c0v1.8.jpg	 r	 2.617	 GoodTrial	 1.8	 bl
22	 1	 0	 x	 LineStimuli//1.8/stimNo152r0c0v1.8.jpg	 r	 2.411	 GoodTrial	 1.8	 bl
23	 1	 1	 left	 LineStimuli//1.8/stimNo81r6c8v1.8.jpg	 r	 2.478	 GoodTrial	 1.8	 bl
24	 1	 0	 x	 LineStimuli//1.8/stimNo140r0c0v1.8.jpg	 r	 3.526	 GoodTrial	 1.8	 bl
25	 1	 1	 right	 LineStimuli//1.8/stimNo117r10c16v1.8.jpg	 r	 2.745	 GoodTrial	 1.8	 bl
26	 1	 0	 x	 LineStimuli//1.8/stimNo154r0c0v1.8.jpg	 r	 4.415	 GoodTrial	 1.8	 bl
27	 1	 1	 left	 LineStimuli//1.8/stimNo98r15c5v1.8.jpg	 l	 1.672	 GoodTrial	 1.8	 bl
28	 1	 0	 x	 LineStimuli//1.8/stimNo145r0c0v1.8.jpg	 r	 2.136	 GoodTrial	 1.8	 bl
29	 1	 1	 right	 LineStimuli//1.8/stimNo82r7c18v1.8.jpg	 r	 2.796	 GoodTrial	 1.8	 bl
30	 1	 1	 left	 LineStimuli//1.8/stimNo89r11c6v1.8.jpg	 l	 1.760	 GoodTrial	 1.8	 bl
31	 1	 0	 x	 LineStimuli//1.8/stimNo129r0c0v1.8.jpg	 r	 2.911	 GoodTrial	 1.8	 bl
32	 1	 0	 x	 LineStimuli//1.8/stimNo134r0c0v1.8.jpg	 r	 3.008	 GoodTrial	 1.8	 bl
33	 1	 1	 left	 LineStimuli//1.8/stimNo110r4c7v1.8.jpg	 r	 2.387	 GoodTrial	 1.8	 bl
34	 1	 0	 x	 LineStimuli//1.8/stimNo138r0c0v1.8.jpg	 r	 3.450	 GoodTrial	 1.8	 bl
35	 1	 0	 x	 LineStimuli//1.8/stimNo151r0c0v1.8.jpg	 r	 3.209	 GoodTrial	 1.8	 bl
36	 1	 1	 right	 LineStimuli//1.8/stimNo83r6c13v1.8.jpg	 l	 2.864	 GoodTrial	 1.8	 bl
37	 1	 1	 left	 LineStimuli//1.8/stimNo91r14c4v1.8.jpg	 l	 2.671	 GoodTrial	 1.8	 bl
38	 1	 0	 x	 LineStimuli//1.8/stimNo131r0c0v1.8.jpg	 r	 4.741	 GoodTrial	 1.8	 bl
39	 1	 0	 x	 LineStimuli//1.8/stimNo149r0c0v1.8.jpg	 r	 4.177	 GoodTrial	 1.8	 bl
40	 1	 1	 left	 LineStimuli//1.8/stimNo116r4c7v1.8.jpg	 l	 4.529	 GoodTrial	 1.8	 bl
41	 1	 0	 x	 LineStimuli//1.8/stimNo156r0c0v1.8.jpg	 r	 3.817	 GoodTrial	 1.8	 bl
42	 1	 0	 x	 LineStimuli//1.8/stimNo146r0c0v1.8.jpg	 r	 3.568	 GoodTrial	 1.8	 bl
43	 1	 1	 right	 LineStimuli//1.8/stimNo114r8c13v1.8.jpg	 l	 3.431	 GoodTrial	 1.8	 bl
44	 1	 1	 left	 LineStimuli//1.8/stimNo94r13c8v1.8.jpg	 l	 2.004	 GoodTrial	 1.8	 bl
45	 1	 1	 left	 LineStimuli//1.8/stimNo106r13c9v1.8.jpg	 l	 2.349	 GoodTrial	 1.8	 bl
46	 1	 0	 x	 LineStimuli//1.8/stimNo155r0c0v1.8.jpg	 r	 3.089	 GoodTrial	 1.8	 bl
47	 1	 1	 right	 LineStimuli//1.8/stimNo92r10c18v1.8.jpg	 l	 2.079	 GoodTrial	 1.8	 bl
48	 1	 1	 left	 LineStimuli//1.8/stimNo88r15c9v1.8.jpg	 l	 1.757	 GoodTrial	 1.8	 bl
49	 1	 1	 right	 LineStimuli//1.8/stimNo102r14c17v1.8.jpg	 l	 1.678	 GoodTrial	 1.8	 bl
50	 1	 1	 left	 LineStimuli//1.8/stimNo86r14c4v1.8.jpg	 l	 1.896	 GoodTrial	 1.8	 bl
1	 2	 0	 x	 LineStimuli//2.3/stimNo124r0c0v2.3.jpg	 r	 3.149	 GoodTrial	 2.3	 bl
2	 2	 1	 right	 LineStimuli//2.3/stimNo85r4c15v2.3.jpg	 l	 2.170	 GoodTrial	 2.3	 bl
3	 2	 1	 right	 LineStimuli//2.3/stimNo84r15c14v2.3.jpg	 l	 2.120	 GoodTrial	 2.3	 bl
4	 2	 0	 x	 LineStimuli//2.3/stimNo152r0c0v2.3.jpg	 r	 3.498	 GoodTrial	 2.3	 bl
5	 2	 1	 left	 LineStimuli//2.3/stimNo112r3c2v2.3.jpg	 l	 2.347	 GoodTrial	 2.3	 bl
6	 2	 0	 x	 LineStimuli//2.3/stimNo156r0c0v2.3.jpg	 r	 3.125	 GoodTrial	 2.3	 bl
7	 2	 0	 x	 LineStimuli//2.3/stimNo149r0c0v2.3.jpg	 r	 3.083	 GoodTrial	 2.3	 bl
8	 2	 0	 x	 LineStimuli//2.3/stimNo147r0c0v2.3.jpg	 r	 2.512	 GoodTrial	 2.3	 bl
9	 2	 1	 left	 LineStimuli//2.3/stimNo97r3c3v2.3.jpg	 l	 2.200	 GoodTrial	 2.3	 bl
10	 2	 1	 right	 LineStimuli//2.3/stimNo90r14c21v2.3.jpg	 l	 1.773	 GoodTrial	 2.3	 bl
11	 2	 0	 x	 LineStimuli//2.3/stimNo133r0c0v2.3.jpg	 r	 2.672	 GoodTrial	 2.3	 bl
12	 2	 0	 x	 LineStimuli//2.3/stimNo148r0c0v2.3.jpg	 r	 3.355	 GoodTrial	 2.3	 bl
13	 2	 1	 left	 LineStimuli//2.3/stimNo106r9c9v2.3.jpg	 l	 1.563	 GoodTrial	 2.3	 bl
14	 2	 1	 left	 LineStimuli//2.3/stimNo117r11c8v2.3.jpg	 l	 1.625	 GoodTrial	 2.3	 bl
15	 2	 1	 right	 LineStimuli//2.3/stimNo120r4c17v2.3.jpg	 l	 1.624	 GoodTrial	 2.3	 bl
16	 2	 0	 x	 LineStimuli//2.3/stimNo145r0c0v2.3.jpg	 r	 2.289	 GoodTrial	 2.3	 bl
17	 2	 0	 x	 LineStimuli//2.3/stimNo138r0c0v2.3.jpg	 r	 2.596	 GoodTrial	 2.3	 bl
18	 2	 0	 x	 LineStimuli//2.3/stimNo128r0c0v2.3.jpg	 r	 1.924	 GoodTrial	 2.3	 bl
19	 2	 0	 x	 LineStimuli//2.3/stimNo157r0c0v2.3.jpg	 r	 2.289	 GoodTrial	 2.3	 bl
20	 2	 0	 x	 LineStimuli//2.3/stimNo123r0c0v2.3.jpg	 r	 3.156	 GoodTrial	 2.3	 bl
21	 2	 1	 left	 LineStimuli//2.3/stimNo113r3c8v2.3.jpg	 l	 1.624	 GoodTrial	 2.3	 bl
22	 2	 0	 x	 LineStimuli//2.3/stimNo153r0c0v2.3.jpg	 r	 2.188	 GoodTrial	 2.3	 bl
23	 2	 1	 right	 LineStimuli//2.3/stimNo98r12c21v2.3.jpg	 l	 1.936	 GoodTrial	 2.3	 bl
24	 2	 0	 x	 LineStimuli//2.3/stimNo132r0c0v2.3.jpg	 r	 2.369	 GoodTrial	 2.3	 bl
25	 2	 1	 left	 LineStimuli//2.3/stimNo116r2c2v2.3.jpg	 l	 2.664	 GoodTrial	 2.3	 bl
26	 2	 1	 left	 LineStimuli//2.3/stimNo119r3c2v2.3.jpg	 l	 1.840	 GoodTrial	 2.3	 bl
27	 2	 0	 x	 LineStimuli//2.3/stimNo135r0c0v2.3.jpg	 r	 3.467	 GoodTrial	 2.3	 bl
28	 2	 1	 right	 LineStimuli//2.3/stimNo99r2c13v2.3.jpg	 l	 1.818	 GoodTrial	 2.3	 bl
29	 2	 1	 left	 LineStimuli//2.3/stimNo104r2c4v2.3.jpg	 l	 1.928	 GoodTrial	 2.3	 bl
30	 2	 1	 left	 LineStimuli//2.3/stimNo115r7c3v2.3.jpg	 l	 1.938	 GoodTrial	 2.3	 bl
31	 2	 1	 right	 LineStimuli//2.3/stimNo107r11c15v2.3.jpg	 l	 2.887	 GoodTrial	 2.3	 bl
32	 2	 0	 x	 LineStimuli//2.3/stimNo155r0c0v2.3.jpg	 r	 2.816	 GoodTrial	 2.3	 bl
33	 2	 1	 left	 LineStimuli//2.3/stimNo88r15c2v2.3.jpg	 r	 2.150	 GoodTrial	 2.3	 bl
34	 2	 0	 x	 LineStimuli//2.3/stimNo126r0c0v2.3.jpg	 r	 2.633	 GoodTrial	 2.3	 bl
35	 2	 0	 x	 LineStimuli//2.3/stimNo121r0c0v2.3.jpg	 r	 3.402	 GoodTrial	 2.3	 bl
36	 2	 1	 right	 LineStimuli//2.3/stimNo87r13c19v2.3.jpg	 l	 2.089	 GoodTrial	 2.3	 bl
37	 2	 1	 left	 LineStimuli//2.3/stimNo95r13c9v2.3.jpg	 l	 1.943	 GoodTrial	 2.3	 bl
38	 2	 1	 left	 LineStimuli//2.3/stimNo114r7c8v2.3.jpg	 l	 2.668	 GoodTrial	 2.3	 bl
39	 2	 0	 x	 LineStimuli//2.3/stimNo146r0c0v2.3.jpg	 r	 2.703	 GoodTrial	 2.3	 bl
40	 2	 0	 x	 LineStimuli//2.3/stimNo134r0c0v2.3.jpg	 r	 2.008	 GoodTrial	 2.3	 bl
41	 2	 0	 x	 LineStimuli//2.3/stimNo136r0c0v2.3.jpg	 r	 2.141	 GoodTrial	 2.3	 bl
42	 2	 1	 left	 LineStimuli//2.3/stimNo83r14c4v2.3.jpg	 l	 2.113	 GoodTrial	 2.3	 bl
43	 2	 1	 right	 LineStimuli//2.3/stimNo111r11c21v2.3.jpg	 l	 1.976	 GoodTrial	 2.3	 bl
44	 2	 1	 right	 LineStimuli//2.3/stimNo93r4c16v2.3.jpg	 l	 2.182	 GoodTrial	 2.3	 bl
45	 2	 1	 right	 LineStimuli//2.3/stimNo102r6c18v2.3.jpg	 r	 2.720	 GoodTrial	 2.3	 bl
46	 2	 0	 x	 LineStimuli//2.3/stimNo137r0c0v2.3.jpg	 r	 2.536	 GoodTrial	 2.3	 bl
47	 2	 1	 left	 LineStimuli//2.3/stimNo94r8c9v2.3.jpg	 l	 1.656	 GoodTrial	 2.3	 bl
48	 2	 0	 x	 LineStimuli//2.3/stimNo131r0c0v2.3.jpg	 r	 2.287	 GoodTrial	 2.3	 bl
49	 2	 0	 x	 LineStimuli//2.3/stimNo154r0c0v2.3.jpg	 r	 1.773	 GoodTrial	 2.3	 bl
50	 2	 0	 x	 LineStimuli//2.3/stimNo159r0c0v2.3.jpg	 r	 1.745	 GoodTrial	 2.3	 bl
1	 3	 1	 left	 LineStimuli//4.3/stimNo113r11c7v4.3.jpg	 l	 1.676	 GoodTrial	 4.3	 bl
2	 3	 1	 right	 LineStimuli//4.3/stimNo84r15c20v4.3.jpg	 l	 2.022	 GoodTrial	 4.3	 bl
3	 3	 0	 x	 LineStimuli//4.3/stimNo143r0c0v4.3.jpg	 r	 2.156	 GoodTrial	 4.3	 bl
4	 3	 0	 x	 LineStimuli//4.3/stimNo134r0c0v4.3.jpg	 r	 2.332	 GoodTrial	 4.3	 bl
5	 3	 0	 x	 LineStimuli//4.3/stimNo155r0c0v4.3.jpg	 r	 2.117	 GoodTrial	 4.3	 bl
6	 3	 0	 x	 LineStimuli//4.3/stimNo127r0c0v4.3.jpg	 r	 2.945	 GoodTrial	 4.3	 bl
7	 3	 0	 x	 LineStimuli//4.3/stimNo152r0c0v4.3.jpg	 r	 2.241	 GoodTrial	 4.3	 bl
8	 3	 1	 left	 LineStimuli//4.3/stimNo87r3c5v4.3.jpg	 l	 1.638	 GoodTrial	 4.3	 bl
9	 3	 1	 left	 LineStimuli//4.3/stimNo98r3c8v4.3.jpg	 l	 1.563	 GoodTrial	 4.3	 bl
10	 3	 1	 left	 LineStimuli//4.3/stimNo93r9c9v4.3.jpg	 l	 1.567	 GoodTrial	 4.3	 bl
11	 3	 0	 x	 LineStimuli//4.3/stimNo135r0c0v4.3.jpg	 r	 2.045	 GoodTrial	 4.3	 bl
12	 3	 0	 x	 LineStimuli//4.3/stimNo137r0c0v4.3.jpg	 r	 1.859	 GoodTrial	 4.3	 bl
13	 3	 0	 x	 LineStimuli//4.3/stimNo145r0c0v4.3.jpg	 r	 3.757	 GoodTrial	 4.3	 bl
14	 3	 0	 x	 LineStimuli//4.3/stimNo126r0c0v4.3.jpg	 r	 2.275	 GoodTrial	 4.3	 bl
15	 3	 0	 x	 LineStimuli//4.3/stimNo147r0c0v4.3.jpg	 r	 1.578	 GoodTrial	 4.3	 bl
16	 3	 0	 x	 LineStimuli//4.3/stimNo157r0c0v4.3.jpg	 r	 1.581	 GoodTrial	 4.3	 bl
17	 3	 0	 x	 LineStimuli//4.3/stimNo132r0c0v4.3.jpg	 r	 1.576	 GoodTrial	 4.3	 bl
18	 3	 0	 x	 LineStimuli//4.3/stimNo148r0c0v4.3.jpg	 r	 1.565	 GoodTrial	 4.3	 bl
19	 3	 0	 x	 LineStimuli//4.3/stimNo124r0c0v4.3.jpg	 r	 1.459	 GoodTrial	 4.3	 bl
20	 3	 1	 right	 LineStimuli//4.3/stimNo94r12c13v4.3.jpg	 l	 1.690	 GoodTrial	 4.3	 bl
21	 3	 0	 x	 LineStimuli//4.3/stimNo150r0c0v4.3.jpg	 r	 1.976	 GoodTrial	 4.3	 bl
22	 3	 1	 right	 LineStimuli//4.3/stimNo115r10c18v4.3.jpg	 l	 1.678	 GoodTrial	 4.3	 bl
23	 3	 0	 x	 LineStimuli//4.3/stimNo160r0c0v4.3.jpg	 r	 1.720	 GoodTrial	 4.3	 bl
24	 3	 0	 x	 LineStimuli//4.3/stimNo154r0c0v4.3.jpg	 r	 1.544	 GoodTrial	 4.3	 bl
25	 3	 0	 x	 LineStimuli//4.3/stimNo141r0c0v4.3.jpg	 r	 1.584	 GoodTrial	 4.3	 bl
26	 3	 1	 right	 LineStimuli//4.3/stimNo96r4c19v4.3.jpg	 l	 1.562	 GoodTrial	 4.3	 bl
27	 3	 1	 left	 LineStimuli//4.3/stimNo107r2c8v4.3.jpg	 l	 1.569	 GoodTrial	 4.3	 bl
28	 3	 1	 right	 LineStimuli//4.3/stimNo92r2c20v4.3.jpg	 l	 1.583	 GoodTrial	 4.3	 bl
29	 3	 1	 left	 LineStimuli//4.3/stimNo95r11c9v4.3.jpg	 l	 1.429	 GoodTrial	 4.3	 bl
30	 3	 1	 left	 LineStimuli//4.3/stimNo85r3c5v4.3.jpg	 l	 1.581	 GoodTrial	 4.3	 bl
31	 3	 1	 right	 LineStimuli//4.3/stimNo114r10c15v4.3.jpg	 l	 1.543	 GoodTrial	 4.3	 bl
32	 3	 1	 left	 LineStimuli//4.3/stimNo100r8c3v4.3.jpg	 l	 1.433	 GoodTrial	 4.3	 bl
33	 3	 0	 x	 LineStimuli//4.3/stimNo122r0c0v4.3.jpg	 r	 1.946	 GoodTrial	 4.3	 bl
34	 3	 1	 right	 LineStimuli//4.3/stimNo112r10c16v4.3.jpg	 l	 1.586	 GoodTrial	 4.3	 bl
35	 3	 1	 left	 LineStimuli//4.3/stimNo88r10c3v4.3.jpg	 l	 1.976	 GoodTrial	 4.3	 bl
36	 3	 0	 x	 LineStimuli//4.3/stimNo123r0c0v4.3.jpg	 r	 1.672	 GoodTrial	 4.3	 bl
37	 3	 1	 left	 LineStimuli//4.3/stimNo111r10c9v4.3.jpg	 l	 1.569	 GoodTrial	 4.3	 bl
38	 3	 1	 right	 LineStimuli//4.3/stimNo82r7c18v4.3.jpg	 l	 1.474	 GoodTrial	 4.3	 bl
39	 3	 1	 right	 LineStimuli//4.3/stimNo91r9c13v4.3.jpg	 l	 1.573	 GoodTrial	 4.3	 bl
40	 3	 0	 x	 LineStimuli//4.3/stimNo153r0c0v4.3.jpg	 r	 1.633	 GoodTrial	 4.3	 bl
41	 3	 1	 left	 LineStimuli//4.3/stimNo108r5c8v4.3.jpg	 l	 1.484	 GoodTrial	 4.3	 bl
42	 3	 1	 right	 LineStimuli//4.3/stimNo109r15c15v4.3.jpg	 l	 1.697	 GoodTrial	 4.3	 bl
43	 3	 0	 x	 LineStimuli//4.3/stimNo144r0c0v4.3.jpg	 l	 1.489	 GoodTrial	 4.3	 bl
44	 3	 0	 x	 LineStimuli//4.3/stimNo149r0c0v4.3.jpg	 r	 1.711	 GoodTrial	 4.3	 bl
45	 3	 1	 left	 LineStimuli//4.3/stimNo86r7c3v4.3.jpg	 l	 1.649	 GoodTrial	 4.3	 bl
46	 3	 1	 right	 LineStimuli//4.3/stimNo119r12c17v4.3.jpg	 l	 1.502	 GoodTrial	 4.3	 bl
47	 3	 0	 x	 LineStimuli//4.3/stimNo139r0c0v4.3.jpg	 r	 1.697	 GoodTrial	 4.3	 bl
48	 3	 0	 x	 LineStimuli//4.3/stimNo131r0c0v4.3.jpg	 r	 1.563	 GoodTrial	 4.3	 bl
49	 3	 1	 left	 LineStimuli//4.3/stimNo104r15c2v4.3.jpg	 l	 1.757	 GoodTrial	 4.3	 bl
50	 3	 0	 x	 LineStimuli//4.3/stimNo133r0c0v4.3.jpg	 r	 1.848	 GoodTrial	 4.3	 bl
1	 4	 0	 x	 LineStimuli//3.3/stimNo149r0c0v3.3.jpg	 r	 1.552	 GoodTrial	 3.3	 bl
2	 4	 1	 left	 LineStimuli//3.3/stimNo81r15c8v3.3.jpg	 l	 1.680	 GoodTrial	 3.3	 bl
3	 4	 0	 x	 LineStimuli//3.3/stimNo122r0c0v3.3.jpg	 r	 1.638	 GoodTrial	 3.3	 bl
4	 4	 1	 right	 LineStimuli//3.3/stimNo107r2c17v3.3.jpg	 l	 1.583	 GoodTrial	 3.3	 bl
5	 4	 0	 x	 LineStimuli//3.3/stimNo137r0c0v3.3.jpg	 r	 1.576	 GoodTrial	 3.3	 bl
6	 4	 0	 x	 LineStimuli//3.3/stimNo127r0c0v3.3.jpg	 r	 1.594	 GoodTrial	 3.3	 bl
7	 4	 1	 right	 LineStimuli//3.3/stimNo82r11c20v3.3.jpg	 r	 1.688	 GoodTrial	 3.3	 bl
8	 4	 0	 x	 LineStimuli//3.3/stimNo159r0c0v3.3.jpg	 r	 1.788	 GoodTrial	 3.3	 bl
9	 4	 0	 x	 LineStimuli//3.3/stimNo154r0c0v3.3.jpg	 r	 2.783	 GoodTrial	 3.3	 bl
10	 4	 0	 x	 LineStimuli//3.3/stimNo157r0c0v3.3.jpg	 r	 2.147	 GoodTrial	 3.3	 bl
11	 4	 1	 left	 LineStimuli//3.3/stimNo85r6c4v3.3.jpg	 l	 1.543	 GoodTrial	 3.3	 bl
12	 4	 0	 x	 LineStimuli//3.3/stimNo141r0c0v3.3.jpg	 r	 1.638	 GoodTrial	 3.3	 bl
13	 4	 0	 x	 LineStimuli//3.3/stimNo132r0c0v3.3.jpg	 r	 1.569	 GoodTrial	 3.3	 bl
14	 4	 0	 x	 LineStimuli//3.3/stimNo142r0c0v3.3.jpg	 r	 1.585	 GoodTrial	 3.3	 bl
15	 4	 1	 left	 LineStimuli//3.3/stimNo106r9c9v3.3.jpg	 l	 1.711	 GoodTrial	 3.3	 bl
16	 4	 0	 x	 LineStimuli//3.3/stimNo147r0c0v3.3.jpg	 r	 2.379	 GoodTrial	 3.3	 bl
17	 4	 1	 right	 LineStimuli//3.3/stimNo101r7c16v3.3.jpg	 l	 1.662	 GoodTrial	 3.3	 bl
18	 4	 1	 right	 LineStimuli//3.3/stimNo87r15c13v3.3.jpg	 l	 1.652	 GoodTrial	 3.3	 bl
19	 4	 0	 x	 LineStimuli//3.3/stimNo146r0c0v3.3.jpg	 r	 2.262	 GoodTrial	 3.3	 bl
20	 4	 1	 left	 LineStimuli//3.3/stimNo92r10c7v3.3.jpg	 l	 1.614	 GoodTrial	 3.3	 bl
21	 4	 0	 x	 LineStimuli//3.3/stimNo152r0c0v3.3.jpg	 r	 1.808	 GoodTrial	 3.3	 bl
22	 4	 1	 right	 LineStimuli//3.3/stimNo84r6c16v3.3.jpg	 l	 1.520	 GoodTrial	 3.3	 bl
23	 4	 1	 left	 LineStimuli//3.3/stimNo104r4c4v3.3.jpg	 l	 1.577	 GoodTrial	 3.3	 bl
24	 4	 1	 left	 LineStimuli//3.3/stimNo115r3c4v3.3.jpg	 l	 3.376	 GoodTrial	 3.3	 bl
25	 4	 1	 right	 LineStimuli//3.3/stimNo96r8c18v3.3.jpg	 l	 1.646	 GoodTrial	 3.3	 bl
26	 4	 0	 x	 LineStimuli//3.3/stimNo144r0c0v3.3.jpg	 r	 1.940	 GoodTrial	 3.3	 bl
27	 4	 0	 x	 LineStimuli//3.3/stimNo133r0c0v3.3.jpg	 r	 1.868	 GoodTrial	 3.3	 bl
28	 4	 0	 x	 LineStimuli//3.3/stimNo136r0c0v3.3.jpg	 r	 2.095	 GoodTrial	 3.3	 bl
29	 4	 0	 x	 LineStimuli//3.3/stimNo143r0c0v3.3.jpg	 r	 1.551	 GoodTrial	 3.3	 bl
30	 4	 1	 right	 LineStimuli//3.3/stimNo97r6c13v3.3.jpg	 l	 1.619	 GoodTrial	 3.3	 bl
31	 4	 1	 left	 LineStimuli//3.3/stimNo100r3c3v3.3.jpg	 l	 1.531	 GoodTrial	 3.3	 bl
32	 4	 1	 left	 LineStimuli//3.3/stimNo95r15c8v3.3.jpg	 l	 1.955	 GoodTrial	 3.3	 bl
33	 4	 0	 x	 LineStimuli//3.3/stimNo151r0c0v3.3.jpg	 r	 1.937	 GoodTrial	 3.3	 bl
34	 4	 0	 x	 LineStimuli//3.3/stimNo139r0c0v3.3.jpg	 r	 1.667	 GoodTrial	 3.3	 bl
35	 4	 0	 x	 LineStimuli//3.3/stimNo130r0c0v3.3.jpg	 r	 1.599	 GoodTrial	 3.3	 bl
36	 4	 1	 left	 LineStimuli//3.3/stimNo90r2c9v3.3.jpg	 l	 1.580	 GoodTrial	 3.3	 bl
37	 4	 1	 left	 LineStimuli//3.3/stimNo83r8c3v3.3.jpg	 l	 1.601	 GoodTrial	 3.3	 bl
38	 4	 0	 x	 LineStimuli//3.3/stimNo129r0c0v3.3.jpg	 r	 1.806	 GoodTrial	 3.3	 bl
39	 4	 1	 right	 LineStimuli//3.3/stimNo114r11c21v3.3.jpg	 r	 1.856	 GoodTrial	 3.3	 bl
40	 4	 0	 x	 LineStimuli//3.3/stimNo125r0c0v3.3.jpg	 r	 1.739	 GoodTrial	 3.3	 bl
41	 4	 1	 right	 LineStimuli//3.3/stimNo98r4c21v3.3.jpg	 r	 1.439	 GoodTrial	 3.3	 bl
42	 4	 0	 x	 LineStimuli//3.3/stimNo121r0c0v3.3.jpg	 r	 2.188	 GoodTrial	 3.3	 bl
43	 4	 0	 x	 LineStimuli//3.3/stimNo128r0c0v3.3.jpg	 l	 1.641	 GoodTrial	 3.3	 bl
44	 4	 0	 x	 LineStimuli//3.3/stimNo145r0c0v3.3.jpg	 r	 1.952	 GoodTrial	 3.3	 bl
45	 4	 1	 left	 LineStimuli//3.3/stimNo110r4c3v3.3.jpg	 l	 1.939	 GoodTrial	 3.3	 bl
46	 4	 0	 x	 LineStimuli//3.3/stimNo126r0c0v3.3.jpg	 r	 1.658	 GoodTrial	 3.3	 bl
47	 4	 1	 right	 LineStimuli//3.3/stimNo102r13c13v3.3.jpg	 l	 1.766	 GoodTrial	 3.3	 bl
48	 4	 0	 x	 LineStimuli//3.3/stimNo131r0c0v3.3.jpg	 r	 1.949	 GoodTrial	 3.3	 bl
49	 4	 0	 x	 LineStimuli//3.3/stimNo155r0c0v3.3.jpg	 r	 1.787	 GoodTrial	 3.3	 bl
50	 4	 0	 x	 LineStimuli//3.3/stimNo134r0c0v3.3.jpg	 r	 1.541	 GoodTrial	 3.3	 bl
1	 5	 1	 left	 LineStimuli//1.5/stimNo110r7c3v1.5.jpg	 r	 2.995	 GoodTrial	 1.5	 bl
2	 5	 1	 right	 LineStimuli//1.5/stimNo90r3c15v1.5.jpg	 r	 2.346	 GoodTrial	 1.5	 bl
3	 5	 0	 x	 LineStimuli//1.5/stimNo140r0c0v1.5.jpg	 l	 1.998	 GoodTrial	 1.5	 bl
4	 5	 0	 x	 LineStimuli//1.5/stimNo150r0c0v1.5.jpg	 l	 2.588	 GoodTrial	 1.5	 bl
5	 5	 0	 x	 LineStimuli//1.5/stimNo132r0c0v1.5.jpg	 r	 2.481	 GoodTrial	 1.5	 bl
6	 5	 1	 right	 LineStimuli//1.5/stimNo104r5c18v1.5.jpg	 r	 3.224	 GoodTrial	 1.5	 bl
7	 5	 0	 x	 LineStimuli//1.5/stimNo159r0c0v1.5.jpg	 r	 3.841	 GoodTrial	 1.5	 bl
8	 5	 1	 left	 LineStimuli//1.5/stimNo87r12c5v1.5.jpg	 r	 4.765	 GoodTrial	 1.5	 bl
9	 5	 1	 right	 LineStimuli//1.5/stimNo108r13c15v1.5.jpg	 r	 3.252	 GoodTrial	 1.5	 bl
10	 5	 0	 x	 LineStimuli//1.5/stimNo147r0c0v1.5.jpg	 l	 2.403	 GoodTrial	 1.5	 bl
11	 5	 0	 x	 LineStimuli//1.5/stimNo148r0c0v1.5.jpg	 r	 2.989	 GoodTrial	 1.5	 bl
12	 5	 1	 left	 LineStimuli//1.5/stimNo116r7c7v1.5.jpg	 r	 4.765	 GoodTrial	 1.5	 bl
13	 5	 1	 left	 LineStimuli//1.5/stimNo88r6c7v1.5.jpg	 r	 4.224	 GoodTrial	 1.5	 bl
14	 5	 0	 x	 LineStimuli//1.5/stimNo144r0c0v1.5.jpg	 r	 2.645	 GoodTrial	 1.5	 bl
15	 5	 1	 left	 LineStimuli//1.5/stimNo109r8c6v1.5.jpg	 l	 1.473	 GoodTrial	 1.5	 bl
16	 5	 1	 left	 LineStimuli//1.5/stimNo113r4c4v1.5.jpg	 l	 1.905	 GoodTrial	 1.5	 bl
17	 5	 0	 x	 LineStimuli//1.5/stimNo155r0c0v1.5.jpg	 l	 2.668	 GoodTrial	 1.5	 bl
18	 5	 0	 x	 LineStimuli//1.5/stimNo128r0c0v1.5.jpg	 r	 3.608	 GoodTrial	 1.5	 bl
19	 5	 0	 x	 LineStimuli//1.5/stimNo152r0c0v1.5.jpg	 r	 3.792	 GoodTrial	 1.5	 bl
20	 5	 1	 right	 LineStimuli//1.5/stimNo84r3c18v1.5.jpg	 r	 2.533	 GoodTrial	 1.5	 bl
21	 5	 0	 x	 LineStimuli//1.5/stimNo149r0c0v1.5.jpg	 r	 2.916	 GoodTrial	 1.5	 bl
22	 5	 0	 x	 LineStimuli//1.5/stimNo157r0c0v1.5.jpg	 r	 2.437	 GoodTrial	 1.5	 bl
23	 5	 0	 x	 LineStimuli//1.5/stimNo129r0c0v1.5.jpg	 r	 2.073	 GoodTrial	 1.5	 bl
24	 5	 0	 x	 LineStimuli//1.5/stimNo130r0c0v1.5.jpg	 r	 2.196	 GoodTrial	 1.5	 bl
25	 5	 1	 left	 LineStimuli//1.5/stimNo120r14c2v1.5.jpg	 r	 1.888	 GoodTrial	 1.5	 bl
26	 5	 1	 left	 LineStimuli//1.5/stimNo114r4c4v1.5.jpg	 r	 3.270	 GoodTrial	 1.5	 bl
27	 5	 1	 right	 LineStimuli//1.5/stimNo98r8c21v1.5.jpg	 r	 2.759	 GoodTrial	 1.5	 bl
28	 5	 1	 right	 LineStimuli//1.5/stimNo103r13c17v1.5.jpg	 l	 1.939	 GoodTrial	 1.5	 bl
29	 5	 1	 right	 LineStimuli//1.5/stimNo105r3c18v1.5.jpg	 l	 1.825	 GoodTrial	 1.5	 bl
30	 5	 0	 x	 LineStimuli//1.5/stimNo143r0c0v1.5.jpg	 r	 2.036	 GoodTrial	 1.5	 bl
31	 5	 0	 x	 LineStimuli//1.5/stimNo151r0c0v1.5.jpg	 r	 2.065	 GoodTrial	 1.5	 bl
32	 5	 0	 x	 LineStimuli//1.5/stimNo153r0c0v1.5.jpg	 l	 2.113	 GoodTrial	 1.5	 bl
33	 5	 0	 x	 LineStimuli//1.5/stimNo126r0c0v1.5.jpg	 r	 1.864	 GoodTrial	 1.5	 bl
34	 5	 0	 x	 LineStimuli//1.5/stimNo135r0c0v1.5.jpg	 r	 3.034	 GoodTrial	 1.5	 bl
35	 5	 0	 x	 LineStimuli//1.5/stimNo121r0c0v1.5.jpg	 l	 2.630	 GoodTrial	 1.5	 bl
36	 5	 0	 x	 LineStimuli//1.5/stimNo158r0c0v1.5.jpg	 r	 1.977	 GoodTrial	 1.5	 bl
37	 5	 0	 x	 LineStimuli//1.5/stimNo139r0c0v1.5.jpg	 r	 3.835	 GoodTrial	 1.5	 bl
38	 5	 1	 left	 LineStimuli//1.5/stimNo99r10c3v1.5.jpg	 r	 1.885	 GoodTrial	 1.5	 bl
39	 5	 1	 left	 LineStimuli//1.5/stimNo112r9c5v1.5.jpg	 r	 2.332	 GoodTrial	 1.5	 bl
40	 5	 0	 x	 LineStimuli//1.5/stimNo141r0c0v1.5.jpg	 x	 0.153	 EARLY_RESPONSE	 1.5	 bl
41	 5	 1	 right	 LineStimuli//1.5/stimNo82r11c15v1.5.jpg	 r	 3.264	 GoodTrial	 1.5	 bl
42	 5	 1	 left	 LineStimuli//1.5/stimNo89r8c9v1.5.jpg	 l	 2.261	 GoodTrial	 1.5	 bl
43	 5	 0	 x	 LineStimuli//1.5/stimNo125r0c0v1.5.jpg	 l	 1.904	 GoodTrial	 1.5	 bl
44	 5	 1	 right	 LineStimuli//1.5/stimNo118r9c20v1.5.jpg	 r	 1.470	 GoodTrial	 1.5	 bl
45	 5	 1	 right	 LineStimuli//1.5/stimNo86r6c16v1.5.jpg	 x	 0.392	 EARLY_RESPONSE	 1.5	 bl
46	 5	 1	 right	 LineStimuli//1.5/stimNo92r6c18v1.5.jpg	 r	 2.793	 GoodTrial	 1.5	 bl
47	 5	 0	 x	 LineStimuli//1.5/stimNo124r0c0v1.5.jpg	 l	 3.030	 GoodTrial	 1.5	 bl
48	 5	 1	 left	 LineStimuli//1.5/stimNo96r15c4v1.5.jpg	 l	 3.253	 GoodTrial	 1.5	 bl
49	 5	 1	 right	 LineStimuli//1.5/stimNo107r2c19v1.5.jpg	 r	 3.113	 GoodTrial	 1.5	 bl
50	 5	 1	 right	 LineStimuli//1.5/stimNo93r14c18v1.5.jpg	 r	 3.831	 GoodTrial	 1.5	 bl
1	 6	 1	 left	 LineStimuli//2.8/stimNo84r3c9v2.8.jpg	 l	 2.199	 GoodTrial	 2.8	 bl
2	 6	 0	 x	 LineStimuli//2.8/stimNo155r0c0v2.8.jpg	 r	 1.697	 GoodTrial	 2.8	 bl
3	 6	 0	 x	 LineStimuli//2.8/stimNo151r0c0v2.8.jpg	 r	 1.689	 GoodTrial	 2.8	 bl
4	 6	 1	 left	 LineStimuli//2.8/stimNo98r15c2v2.8.jpg	 l	 1.853	 GoodTrial	 2.8	 bl
5	 6	 0	 x	 LineStimuli//2.8/stimNo140r0c0v2.8.jpg	 r	 2.168	 GoodTrial	 2.8	 bl
6	 6	 1	 right	 LineStimuli//2.8/stimNo101r12c16v2.8.jpg	 l	 1.944	 GoodTrial	 2.8	 bl
7	 6	 1	 right	 LineStimuli//2.8/stimNo117r11c17v2.8.jpg	 l	 1.958	 GoodTrial	 2.8	 bl
8	 6	 1	 left	 LineStimuli//2.8/stimNo86r15c6v2.8.jpg	 r	 1.848	 GoodTrial	 2.8	 bl
9	 6	 1	 left	 LineStimuli//2.8/stimNo119r8c5v2.8.jpg	 l	 1.794	 GoodTrial	 2.8	 bl
10	 6	 1	 left	 LineStimuli//2.8/stimNo91r2c3v2.8.jpg	 r	 2.579	 GoodTrial	 2.8	 bl
11	 6	 1	 right	 LineStimuli//2.8/stimNo112r13c17v2.8.jpg	 l	 2.278	 GoodTrial	 2.8	 bl
12	 6	 1	 left	 LineStimuli//2.8/stimNo105r5c4v2.8.jpg	 l	 1.640	 GoodTrial	 2.8	 bl
13	 6	 0	 x	 LineStimuli//2.8/stimNo137r0c0v2.8.jpg	 r	 1.802	 GoodTrial	 2.8	 bl
14	 6	 0	 x	 LineStimuli//2.8/stimNo144r0c0v2.8.jpg	 r	 1.784	 GoodTrial	 2.8	 bl
15	 6	 1	 right	 LineStimuli//2.8/stimNo90r13c21v2.8.jpg	 l	 2.056	 GoodTrial	 2.8	 bl
16	 6	 1	 left	 LineStimuli//2.8/stimNo108r13c6v2.8.jpg	 l	 1.887	 GoodTrial	 2.8	 bl
17	 6	 0	 x	 LineStimuli//2.8/stimNo143r0c0v2.8.jpg	 r	 1.692	 GoodTrial	 2.8	 bl
18	 6	 0	 x	 LineStimuli//2.8/stimNo149r0c0v2.8.jpg	 r	 2.223	 GoodTrial	 2.8	 bl
19	 6	 0	 x	 LineStimuli//2.8/stimNo152r0c0v2.8.jpg	 r	 1.785	 GoodTrial	 2.8	 bl
20	 6	 0	 x	 LineStimuli//2.8/stimNo145r0c0v2.8.jpg	 r	 1.755	 GoodTrial	 2.8	 bl
21	 6	 0	 x	 LineStimuli//2.8/stimNo132r0c0v2.8.jpg	 r	 1.578	 GoodTrial	 2.8	 bl
22	 6	 0	 x	 LineStimuli//2.8/stimNo138r0c0v2.8.jpg	 r	 1.635	 GoodTrial	 2.8	 bl
23	 6	 1	 left	 LineStimuli//2.8/stimNo83r12c4v2.8.jpg	 l	 1.535	 GoodTrial	 2.8	 bl
24	 6	 0	 x	 LineStimuli//2.8/stimNo128r0c0v2.8.jpg	 r	 1.777	 GoodTrial	 2.8	 bl
25	 6	 1	 right	 LineStimuli//2.8/stimNo81r8c14v2.8.jpg	 l	 1.740	 GoodTrial	 2.8	 bl
26	 6	 1	 right	 LineStimuli//2.8/stimNo85r4c15v2.8.jpg	 l	 1.640	 GoodTrial	 2.8	 bl
27	 6	 0	 x	 LineStimuli//2.8/stimNo121r0c0v2.8.jpg	 r	 1.811	 GoodTrial	 2.8	 bl
28	 6	 0	 x	 LineStimuli//2.8/stimNo135r0c0v2.8.jpg	 r	 1.849	 GoodTrial	 2.8	 bl
29	 6	 0	 x	 LineStimuli//2.8/stimNo148r0c0v2.8.jpg	 r	 1.583	 GoodTrial	 2.8	 bl
30	 6	 1	 left	 LineStimuli//2.8/stimNo113r9c5v2.8.jpg	 r	 1.541	 GoodTrial	 2.8	 bl
31	 6	 0	 x	 LineStimuli//2.8/stimNo129r0c0v2.8.jpg	 r	 1.920	 GoodTrial	 2.8	 bl
32	 6	 1	 right	 LineStimuli//2.8/stimNo106r13c20v2.8.jpg	 l	 1.703	 GoodTrial	 2.8	 bl
33	 6	 1	 left	 LineStimuli//2.8/stimNo104r8c6v2.8.jpg	 l	 1.728	 GoodTrial	 2.8	 bl
34	 6	 1	 left	 LineStimuli//2.8/stimNo82r4c6v2.8.jpg	 r	 1.739	 GoodTrial	 2.8	 bl
35	 6	 1	 left	 LineStimuli//2.8/stimNo88r15c3v2.8.jpg	 l	 1.915	 GoodTrial	 2.8	 bl
36	 6	 1	 left	 LineStimuli//2.8/stimNo116r4c7v2.8.jpg	 l	 1.633	 GoodTrial	 2.8	 bl
37	 6	 1	 right	 LineStimuli//2.8/stimNo92r14c21v2.8.jpg	 r	 1.804	 GoodTrial	 2.8	 bl
38	 6	 0	 x	 LineStimuli//2.8/stimNo159r0c0v2.8.jpg	 r	 2.734	 GoodTrial	 2.8	 bl
39	 6	 1	 left	 LineStimuli//2.8/stimNo89r12c4v2.8.jpg	 l	 1.612	 GoodTrial	 2.8	 bl
40	 6	 1	 right	 LineStimuli//2.8/stimNo115r9c14v2.8.jpg	 l	 1.644	 GoodTrial	 2.8	 bl
41	 6	 0	 x	 LineStimuli//2.8/stimNo134r0c0v2.8.jpg	 r	 2.071	 GoodTrial	 2.8	 bl
42	 6	 0	 x	 LineStimuli//2.8/stimNo158r0c0v2.8.jpg	 r	 1.791	 GoodTrial	 2.8	 bl
43	 6	 0	 x	 LineStimuli//2.8/stimNo153r0c0v2.8.jpg	 r	 1.864	 GoodTrial	 2.8	 bl
44	 6	 1	 right	 LineStimuli//2.8/stimNo120r8c20v2.8.jpg	 l	 1.533	 GoodTrial	 2.8	 bl
45	 6	 1	 right	 LineStimuli//2.8/stimNo103r3c19v2.8.jpg	 l	 1.520	 GoodTrial	 2.8	 bl
46	 6	 0	 x	 LineStimuli//2.8/stimNo125r0c0v2.8.jpg	 r	 1.651	 GoodTrial	 2.8	 bl
47	 6	 1	 right	 LineStimuli//2.8/stimNo110r7c14v2.8.jpg	 l	 1.498	 GoodTrial	 2.8	 bl
48	 6	 0	 x	 LineStimuli//2.8/stimNo126r0c0v2.8.jpg	 r	 1.662	 GoodTrial	 2.8	 bl
49	 6	 0	 x	 LineStimuli//2.8/stimNo146r0c0v2.8.jpg	 r	 1.697	 GoodTrial	 2.8	 bl
50	 6	 1	 right	 LineStimuli//2.8/stimNo99r9c18v2.8.jpg	 l	 1.901	 GoodTrial	 2.8	 bl
1	 7	 1	 left	 LineStimuli//3.8/stimNo118r4c8v3.8.jpg	 l	 1.586	 GoodTrial	 3.8	 bl
2	 7	 0	 x	 LineStimuli//3.8/stimNo139r0c0v3.8.jpg	 r	 1.540	 GoodTrial	 3.8	 bl
3	 7	 0	 x	 LineStimuli//3.8/stimNo132r0c0v3.8.jpg	 r	 1.552	 GoodTrial	 3.8	 bl
4	 7	 1	 left	 LineStimuli//3.8/stimNo89r10c7v3.8.jpg	 l	 1.512	 GoodTrial	 3.8	 bl
5	 7	 0	 x	 LineStimuli//3.8/stimNo136r0c0v3.8.jpg	 r	 1.662	 GoodTrial	 3.8	 bl
6	 7	 1	 right	 LineStimuli//3.8/stimNo87r6c13v3.8.jpg	 l	 1.521	 GoodTrial	 3.8	 bl
7	 7	 1	 left	 LineStimuli//3.8/stimNo93r8c2v3.8.jpg	 l	 1.489	 GoodTrial	 3.8	 bl
8	 7	 1	 right	 LineStimuli//3.8/stimNo107r9c18v3.8.jpg	 l	 1.529	 GoodTrial	 3.8	 bl
9	 7	 0	 x	 LineStimuli//3.8/stimNo150r0c0v3.8.jpg	 r	 1.679	 GoodTrial	 3.8	 bl
10	 7	 1	 right	 LineStimuli//3.8/stimNo96r2c13v3.8.jpg	 l	 1.513	 GoodTrial	 3.8	 bl
11	 7	 1	 right	 LineStimuli//3.8/stimNo90r8c17v3.8.jpg	 l	 1.789	 GoodTrial	 3.8	 bl
12	 7	 0	 x	 LineStimuli//3.8/stimNo148r0c0v3.8.jpg	 r	 1.705	 GoodTrial	 3.8	 bl
13	 7	 1	 left	 LineStimuli//3.8/stimNo106r9c9v3.8.jpg	 l	 1.649	 GoodTrial	 3.8	 bl
14	 7	 0	 x	 LineStimuli//3.8/stimNo138r0c0v3.8.jpg	 r	 1.763	 GoodTrial	 3.8	 bl
15	 7	 1	 left	 LineStimuli//3.8/stimNo103r11c7v3.8.jpg	 l	 1.472	 GoodTrial	 3.8	 bl
16	 7	 1	 right	 LineStimuli//3.8/stimNo102r10c17v3.8.jpg	 l	 1.481	 GoodTrial	 3.8	 bl
17	 7	 1	 left	 LineStimuli//3.8/stimNo109r11c8v3.8.jpg	 l	 1.467	 GoodTrial	 3.8	 bl
18	 7	 0	 x	 LineStimuli//3.8/stimNo141r0c0v3.8.jpg	 r	 1.604	 GoodTrial	 3.8	 bl
19	 7	 0	 x	 LineStimuli//3.8/stimNo128r0c0v3.8.jpg	 r	 1.692	 GoodTrial	 3.8	 bl
20	 7	 0	 x	 LineStimuli//3.8/stimNo125r0c0v3.8.jpg	 r	 1.925	 GoodTrial	 3.8	 bl
21	 7	 1	 left	 LineStimuli//3.8/stimNo108r3c6v3.8.jpg	 l	 1.551	 GoodTrial	 3.8	 bl
22	 7	 1	 right	 LineStimuli//3.8/stimNo88r10c17v3.8.jpg	 r	 1.605	 GoodTrial	 3.8	 bl
23	 7	 1	 right	 LineStimuli//3.8/stimNo95r5c21v3.8.jpg	 l	 1.618	 GoodTrial	 3.8	 bl
24	 7	 0	 x	 LineStimuli//3.8/stimNo127r0c0v3.8.jpg	 r	 1.573	 GoodTrial	 3.8	 bl
25	 7	 1	 left	 LineStimuli//3.8/stimNo113r14c9v3.8.jpg	 l	 2.022	 GoodTrial	 3.8	 bl
26	 7	 0	 x	 LineStimuli//3.8/stimNo143r0c0v3.8.jpg	 r	 1.536	 GoodTrial	 3.8	 bl
27	 7	 1	 left	 LineStimuli//3.8/stimNo97r15c9v3.8.jpg	 l	 1.568	 GoodTrial	 3.8	 bl
28	 7	 1	 left	 LineStimuli//3.8/stimNo83r9c9v3.8.jpg	 l	 1.496	 GoodTrial	 3.8	 bl
29	 7	 1	 right	 LineStimuli//3.8/stimNo112r12c16v3.8.jpg	 l	 1.671	 GoodTrial	 3.8	 bl
30	 7	 0	 x	 LineStimuli//3.8/stimNo154r0c0v3.8.jpg	 r	 1.701	 GoodTrial	 3.8	 bl
31	 7	 1	 right	 LineStimuli//3.8/stimNo117r6c17v3.8.jpg	 l	 1.512	 GoodTrial	 3.8	 bl
32	 7	 0	 x	 LineStimuli//3.8/stimNo131r0c0v3.8.jpg	 l	 2.026	 GoodTrial	 3.8	 bl
33	 7	 1	 left	 LineStimuli//3.8/stimNo86r7c7v3.8.jpg	 l	 1.580	 GoodTrial	 3.8	 bl
34	 7	 1	 right	 LineStimuli//3.8/stimNo114r10c14v3.8.jpg	 l	 1.733	 GoodTrial	 3.8	 bl
35	 7	 0	 x	 LineStimuli//3.8/stimNo152r0c0v3.8.jpg	 r	 1.841	 GoodTrial	 3.8	 bl
36	 7	 1	 left	 LineStimuli//3.8/stimNo105r2c6v3.8.jpg	 l	 1.693	 GoodTrial	 3.8	 bl
37	 7	 0	 x	 LineStimuli//3.8/stimNo160r0c0v3.8.jpg	 r	 1.602	 GoodTrial	 3.8	 bl
38	 7	 1	 left	 LineStimuli//3.8/stimNo116r7c3v3.8.jpg	 l	 1.465	 GoodTrial	 3.8	 bl
39	 7	 0	 x	 LineStimuli//3.8/stimNo129r0c0v3.8.jpg	 r	 1.632	 GoodTrial	 3.8	 bl
40	 7	 1	 right	 LineStimuli//3.8/stimNo85r3c13v3.8.jpg	 r	 1.467	 GoodTrial	 3.8	 bl
41	 7	 0	 x	 LineStimuli//3.8/stimNo145r0c0v3.8.jpg	 r	 2.245	 GoodTrial	 3.8	 bl
42	 7	 0	 x	 LineStimuli//3.8/stimNo123r0c0v3.8.jpg	 r	 1.492	 GoodTrial	 3.8	 bl
43	 7	 0	 x	 LineStimuli//3.8/stimNo121r0c0v3.8.jpg	 r	 1.422	 GoodTrial	 3.8	 bl
44	 7	 0	 x	 LineStimuli//3.8/stimNo151r0c0v3.8.jpg	 r	 1.521	 GoodTrial	 3.8	 bl
45	 7	 1	 left	 LineStimuli//3.8/stimNo115r14c10v3.8.jpg	 x	 0.744	 EARLY_RESPONSE	 3.8	 bl
46	 7	 0	 x	 LineStimuli//3.8/stimNo159r0c0v3.8.jpg	 l	 0.831	 EARLY_RESPONSE	 3.8	 bl
47	 7	 0	 x	 LineStimuli//3.8/stimNo126r0c0v3.8.jpg	 r	 1.904	 GoodTrial	 3.8	 bl
48	 7	 1	 right	 LineStimuli//3.8/stimNo99r2c13v3.8.jpg	 l	 1.583	 GoodTrial	 3.8	 bl
49	 7	 1	 right	 LineStimuli//3.8/stimNo82r9c21v3.8.jpg	 r	 1.579	 GoodTrial	 3.8	 bl
50	 7	 0	 x	 LineStimuli//3.8/stimNo122r0c0v3.8.jpg	 r	 1.696	 GoodTrial	 3.8	 bl
