Trial	Block	Target_pr	Target_side	Name	Key	RT	Message	Block_Type	Condition
1	 1	 0	 x	 LineStimuli//3.8/stimNo155r0c0v3.8.jpg	 r	 15.148	 GoodTrial	 3.8	 bl
2	 1	 0	 x	 LineStimuli//3.8/stimNo159r0c0v3.8.jpg	 r	 4.705	 GoodTrial	 3.8	 bl
3	 1	 0	 x	 LineStimuli//3.8/stimNo156r0c0v3.8.jpg	 r	 4.933	 GoodTrial	 3.8	 bl
4	 1	 0	 x	 LineStimuli//3.8/stimNo150r0c0v3.8.jpg	 r	 5.621	 GoodTrial	 3.8	 bl
5	 1	 0	 x	 LineStimuli//3.8/stimNo121r0c0v3.8.jpg	 r	 4.636	 GoodTrial	 3.8	 bl
6	 1	 0	 x	 LineStimuli//3.8/stimNo125r0c0v3.8.jpg	 r	 7.323	 GoodTrial	 3.8	 bl
7	 1	 1	 left	 LineStimuli//3.8/stimNo120r5c3v3.8.jpg	 l	 1.877	 GoodTrial	 3.8	 bl
8	 1	 0	 x	 LineStimuli//3.8/stimNo136r0c0v3.8.jpg	 l	 0.328	 EARLY_RESPONSE	 3.8	 bl
9	 1	 0	 x	 LineStimuli//3.8/stimNo145r0c0v3.8.jpg	 r	 5.983	 GoodTrial	 3.8	 bl
10	 1	 1	 left	 LineStimuli//3.8/stimNo113r14c9v3.8.jpg	 l	 2.152	 GoodTrial	 3.8	 bl
11	 1	 1	 left	 LineStimuli//3.8/stimNo108r3c6v3.8.jpg	 l	 1.973	 GoodTrial	 3.8	 bl
12	 1	 0	 x	 LineStimuli//3.8/stimNo126r0c0v3.8.jpg	 r	 3.249	 GoodTrial	 3.8	 bl
13	 1	 0	 x	 LineStimuli//3.8/stimNo127r0c0v3.8.jpg	 r	 2.837	 GoodTrial	 3.8	 bl
14	 1	 0	 x	 LineStimuli//3.8/stimNo148r0c0v3.8.jpg	 r	 2.935	 GoodTrial	 3.8	 bl
15	 1	 1	 left	 LineStimuli//3.8/stimNo104r12c8v3.8.jpg	 l	 1.726	 GoodTrial	 3.8	 bl
16	 1	 0	 x	 LineStimuli//3.8/stimNo152r0c0v3.8.jpg	 r	 2.193	 GoodTrial	 3.8	 bl
17	 1	 1	 right	 LineStimuli//3.8/stimNo111r15c20v3.8.jpg	 l	 1.899	 GoodTrial	 3.8	 bl
18	 1	 0	 x	 LineStimuli//3.8/stimNo139r0c0v3.8.jpg	 r	 3.442	 GoodTrial	 3.8	 bl
19	 1	 0	 x	 LineStimuli//3.8/stimNo134r0c0v3.8.jpg	 r	 2.398	 GoodTrial	 3.8	 bl
20	 1	 1	 right	 LineStimuli//3.8/stimNo94r6c17v3.8.jpg	 l	 1.600	 GoodTrial	 3.8	 bl
21	 1	 1	 right	 LineStimuli//3.8/stimNo99r2c13v3.8.jpg	 l	 1.600	 GoodTrial	 3.8	 bl
22	 1	 1	 left	 LineStimuli//3.8/stimNo110r7c9v3.8.jpg	 l	 1.570	 GoodTrial	 3.8	 bl
23	 1	 1	 right	 LineStimuli//3.8/stimNo107r9c18v3.8.jpg	 l	 1.568	 GoodTrial	 3.8	 bl
24	 1	 0	 x	 LineStimuli//3.8/stimNo143r0c0v3.8.jpg	 r	 2.513	 GoodTrial	 3.8	 bl
25	 1	 0	 x	 LineStimuli//3.8/stimNo132r0c0v3.8.jpg	 r	 2.528	 GoodTrial	 3.8	 bl
26	 1	 0	 x	 LineStimuli//3.8/stimNo147r0c0v3.8.jpg	 r	 2.329	 GoodTrial	 3.8	 bl
27	 1	 0	 x	 LineStimuli//3.8/stimNo144r0c0v3.8.jpg	 r	 2.192	 GoodTrial	 3.8	 bl
28	 1	 0	 x	 LineStimuli//3.8/stimNo158r0c0v3.8.jpg	 r	 2.349	 GoodTrial	 3.8	 bl
29	 1	 0	 x	 LineStimuli//3.8/stimNo129r0c0v3.8.jpg	 r	 3.175	 GoodTrial	 3.8	 bl
30	 1	 0	 x	 LineStimuli//3.8/stimNo153r0c0v3.8.jpg	 r	 3.226	 GoodTrial	 3.8	 bl
31	 1	 1	 left	 LineStimuli//3.8/stimNo109r11c8v3.8.jpg	 l	 1.561	 GoodTrial	 3.8	 bl
32	 1	 0	 x	 LineStimuli//3.8/stimNo140r0c0v3.8.jpg	 r	 2.280	 GoodTrial	 3.8	 bl
33	 1	 1	 left	 LineStimuli//3.8/stimNo83r9c9v3.8.jpg	 l	 1.580	 GoodTrial	 3.8	 bl
34	 1	 0	 x	 LineStimuli//3.8/stimNo131r0c0v3.8.jpg	 r	 2.084	 GoodTrial	 3.8	 bl
35	 1	 1	 left	 LineStimuli//3.8/stimNo86r7c7v3.8.jpg	 l	 1.518	 GoodTrial	 3.8	 bl
36	 1	 1	 right	 LineStimuli//3.8/stimNo88r10c17v3.8.jpg	 l	 1.604	 GoodTrial	 3.8	 bl
37	 1	 0	 x	 LineStimuli//3.8/stimNo160r0c0v3.8.jpg	 r	 2.041	 GoodTrial	 3.8	 bl
38	 1	 1	 right	 LineStimuli//3.8/stimNo95r5c21v3.8.jpg	 r	 2.137	 GoodTrial	 3.8	 bl
39	 1	 1	 left	 LineStimuli//3.8/stimNo106r9c9v3.8.jpg	 l	 1.483	 GoodTrial	 3.8	 bl
40	 1	 0	 x	 LineStimuli//3.8/stimNo135r0c0v3.8.jpg	 r	 2.757	 GoodTrial	 3.8	 bl
41	 1	 0	 x	 LineStimuli//3.8/stimNo157r0c0v3.8.jpg	 r	 2.136	 GoodTrial	 3.8	 bl
42	 1	 1	 right	 LineStimuli//3.8/stimNo92r6c21v3.8.jpg	 r	 2.070	 GoodTrial	 3.8	 bl
43	 1	 1	 right	 LineStimuli//3.8/stimNo102r10c17v3.8.jpg	 l	 1.786	 GoodTrial	 3.8	 bl
44	 1	 0	 x	 LineStimuli//3.8/stimNo128r0c0v3.8.jpg	 r	 2.195	 GoodTrial	 3.8	 bl
45	 1	 1	 right	 LineStimuli//3.8/stimNo82r9c21v3.8.jpg	 l	 1.825	 GoodTrial	 3.8	 bl
46	 1	 1	 right	 LineStimuli//3.8/stimNo90r8c17v3.8.jpg	 l	 1.631	 GoodTrial	 3.8	 bl
47	 1	 1	 left	 LineStimuli//3.8/stimNo118r4c8v3.8.jpg	 l	 1.966	 GoodTrial	 3.8	 bl
48	 1	 1	 right	 LineStimuli//3.8/stimNo91r10c16v3.8.jpg	 l	 1.979	 GoodTrial	 3.8	 bl
49	 1	 0	 x	 LineStimuli//3.8/stimNo122r0c0v3.8.jpg	 r	 3.567	 GoodTrial	 3.8	 bl
50	 1	 1	 right	 LineStimuli//3.8/stimNo84r9c19v3.8.jpg	 l	 1.871	 GoodTrial	 3.8	 bl
1	 2	 1	 left	 LineStimuli//3.3/stimNo100r3c3v3.3.jpg	 l	 1.849	 GoodTrial	 3.3	 bl
2	 2	 0	 x	 LineStimuli//3.3/stimNo141r0c0v3.3.jpg	 r	 2.717	 GoodTrial	 3.3	 bl
3	 2	 0	 x	 LineStimuli//3.3/stimNo145r0c0v3.3.jpg	 r	 2.405	 GoodTrial	 3.3	 bl
4	 2	 1	 left	 LineStimuli//3.3/stimNo108r13c2v3.3.jpg	 l	 1.611	 GoodTrial	 3.3	 bl
5	 2	 0	 x	 LineStimuli//3.3/stimNo152r0c0v3.3.jpg	 r	 2.740	 GoodTrial	 3.3	 bl
6	 2	 0	 x	 LineStimuli//3.3/stimNo154r0c0v3.3.jpg	 r	 2.391	 GoodTrial	 3.3	 bl
7	 2	 1	 left	 LineStimuli//3.3/stimNo115r3c4v3.3.jpg	 l	 1.889	 GoodTrial	 3.3	 bl
8	 2	 1	 right	 LineStimuli//3.3/stimNo82r11c20v3.3.jpg	 l	 2.230	 GoodTrial	 3.3	 bl
9	 2	 1	 right	 LineStimuli//3.3/stimNo114r11c21v3.3.jpg	 l	 1.604	 GoodTrial	 3.3	 bl
10	 2	 1	 right	 LineStimuli//3.3/stimNo84r6c16v3.3.jpg	 l	 1.451	 GoodTrial	 3.3	 bl
11	 2	 0	 x	 LineStimuli//3.3/stimNo129r0c0v3.3.jpg	 r	 2.107	 GoodTrial	 3.3	 bl
12	 2	 0	 x	 LineStimuli//3.3/stimNo127r0c0v3.3.jpg	 r	 2.688	 GoodTrial	 3.3	 bl
13	 2	 1	 right	 LineStimuli//3.3/stimNo120r8c14v3.3.jpg	 l	 1.416	 GoodTrial	 3.3	 bl
14	 2	 0	 x	 LineStimuli//3.3/stimNo147r0c0v3.3.jpg	 r	 1.944	 GoodTrial	 3.3	 bl
15	 2	 1	 right	 LineStimuli//3.3/stimNo98r4c21v3.3.jpg	 l	 2.049	 GoodTrial	 3.3	 bl
16	 2	 1	 right	 LineStimuli//3.3/stimNo113r13c15v3.3.jpg	 r	 2.286	 GoodTrial	 3.3	 bl
17	 2	 0	 x	 LineStimuli//3.3/stimNo142r0c0v3.3.jpg	 r	 2.792	 GoodTrial	 3.3	 bl
18	 2	 0	 x	 LineStimuli//3.3/stimNo151r0c0v3.3.jpg	 r	 2.162	 GoodTrial	 3.3	 bl
19	 2	 1	 right	 LineStimuli//3.3/stimNo96r8c18v3.3.jpg	 l	 2.057	 GoodTrial	 3.3	 bl
20	 2	 0	 x	 LineStimuli//3.3/stimNo122r0c0v3.3.jpg	 r	 2.392	 GoodTrial	 3.3	 bl
21	 2	 0	 x	 LineStimuli//3.3/stimNo125r0c0v3.3.jpg	 r	 1.832	 GoodTrial	 3.3	 bl
22	 2	 1	 left	 LineStimuli//3.3/stimNo83r8c3v3.3.jpg	 l	 1.973	 GoodTrial	 3.3	 bl
23	 2	 1	 right	 LineStimuli//3.3/stimNo97r6c13v3.3.jpg	 l	 1.791	 GoodTrial	 3.3	 bl
24	 2	 0	 x	 LineStimuli//3.3/stimNo132r0c0v3.3.jpg	 r	 1.712	 GoodTrial	 3.3	 bl
25	 2	 0	 x	 LineStimuli//3.3/stimNo130r0c0v3.3.jpg	 r	 1.898	 GoodTrial	 3.3	 bl
26	 2	 0	 x	 LineStimuli//3.3/stimNo121r0c0v3.3.jpg	 r	 3.335	 GoodTrial	 3.3	 bl
27	 2	 1	 right	 LineStimuli//3.3/stimNo99r6c17v3.3.jpg	 l	 1.509	 GoodTrial	 3.3	 bl
28	 2	 1	 right	 LineStimuli//3.3/stimNo116r10c14v3.3.jpg	 l	 2.028	 GoodTrial	 3.3	 bl
29	 2	 1	 left	 LineStimuli//3.3/stimNo106r9c9v3.3.jpg	 l	 1.982	 GoodTrial	 3.3	 bl
30	 2	 0	 x	 LineStimuli//3.3/stimNo156r0c0v3.3.jpg	 r	 2.056	 GoodTrial	 3.3	 bl
31	 2	 0	 x	 LineStimuli//3.3/stimNo153r0c0v3.3.jpg	 r	 2.332	 GoodTrial	 3.3	 bl
32	 2	 0	 x	 LineStimuli//3.3/stimNo143r0c0v3.3.jpg	 l	 2.330	 GoodTrial	 3.3	 bl
33	 2	 0	 x	 LineStimuli//3.3/stimNo140r0c0v3.3.jpg	 r	 2.360	 GoodTrial	 3.3	 bl
34	 2	 0	 x	 LineStimuli//3.3/stimNo150r0c0v3.3.jpg	 r	 1.952	 GoodTrial	 3.3	 bl
35	 2	 1	 right	 LineStimuli//3.3/stimNo89r5c21v3.3.jpg	 l	 2.267	 GoodTrial	 3.3	 bl
36	 2	 1	 right	 LineStimuli//3.3/stimNo87r15c13v3.3.jpg	 r	 2.446	 GoodTrial	 3.3	 bl
37	 2	 0	 x	 LineStimuli//3.3/stimNo134r0c0v3.3.jpg	 r	 3.839	 GoodTrial	 3.3	 bl
38	 2	 0	 x	 LineStimuli//3.3/stimNo123r0c0v3.3.jpg	 r	 2.584	 GoodTrial	 3.3	 bl
39	 2	 0	 x	 LineStimuli//3.3/stimNo135r0c0v3.3.jpg	 r	 3.131	 GoodTrial	 3.3	 bl
40	 2	 1	 right	 LineStimuli//3.3/stimNo91r12c16v3.3.jpg	 l	 2.616	 GoodTrial	 3.3	 bl
41	 2	 1	 left	 LineStimuli//3.3/stimNo110r4c3v3.3.jpg	 l	 1.656	 GoodTrial	 3.3	 bl
42	 2	 0	 x	 LineStimuli//3.3/stimNo148r0c0v3.3.jpg	 l	 1.575	 GoodTrial	 3.3	 bl
43	 2	 1	 right	 LineStimuli//3.3/stimNo88r9c14v3.3.jpg	 l	 1.649	 GoodTrial	 3.3	 bl
44	 2	 1	 right	 LineStimuli//3.3/stimNo112r5c15v3.3.jpg	 l	 1.507	 GoodTrial	 3.3	 bl
45	 2	 1	 left	 LineStimuli//3.3/stimNo86r5c7v3.3.jpg	 l	 1.496	 GoodTrial	 3.3	 bl
46	 2	 0	 x	 LineStimuli//3.3/stimNo136r0c0v3.3.jpg	 r	 2.484	 GoodTrial	 3.3	 bl
47	 2	 1	 left	 LineStimuli//3.3/stimNo95r15c8v3.3.jpg	 l	 1.844	 GoodTrial	 3.3	 bl
48	 2	 0	 x	 LineStimuli//3.3/stimNo126r0c0v3.3.jpg	 r	 2.766	 GoodTrial	 3.3	 bl
49	 2	 1	 left	 LineStimuli//3.3/stimNo104r4c4v3.3.jpg	 l	 1.540	 GoodTrial	 3.3	 bl
50	 2	 1	 left	 LineStimuli//3.3/stimNo85r6c4v3.3.jpg	 l	 1.596	 GoodTrial	 3.3	 bl
1	 3	 1	 right	 LineStimuli//1.5/stimNo100r6c20v1.5.jpg	 r	 3.606	 GoodTrial	 1.5	 bl
2	 3	 0	 x	 LineStimuli//1.5/stimNo149r0c0v1.5.jpg	 l	 4.818	 GoodTrial	 1.5	 bl
3	 3	 0	 x	 LineStimuli//1.5/stimNo122r0c0v1.5.jpg	 l	 2.605	 GoodTrial	 1.5	 bl
4	 3	 1	 right	 LineStimuli//1.5/stimNo90r3c15v1.5.jpg	 r	 4.064	 GoodTrial	 1.5	 bl
5	 3	 1	 left	 LineStimuli//1.5/stimNo99r10c3v1.5.jpg	 l	 6.466	 GoodTrial	 1.5	 bl
6	 3	 1	 left	 LineStimuli//1.5/stimNo113r4c4v1.5.jpg	 r	 6.826	 GoodTrial	 1.5	 bl
7	 3	 0	 x	 LineStimuli//1.5/stimNo137r0c0v1.5.jpg	 l	 3.566	 GoodTrial	 1.5	 bl
8	 3	 0	 x	 LineStimuli//1.5/stimNo140r0c0v1.5.jpg	 r	 6.131	 GoodTrial	 1.5	 bl
9	 3	 1	 left	 LineStimuli//1.5/stimNo89r8c9v1.5.jpg	 r	 5.682	 GoodTrial	 1.5	 bl
10	 3	 0	 x	 LineStimuli//1.5/stimNo154r0c0v1.5.jpg	 l	 2.398	 GoodTrial	 1.5	 bl
11	 3	 1	 left	 LineStimuli//1.5/stimNo106r3c7v1.5.jpg	 r	 5.055	 GoodTrial	 1.5	 bl
12	 3	 0	 x	 LineStimuli//1.5/stimNo128r0c0v1.5.jpg	 l	 7.327	 GoodTrial	 1.5	 bl
13	 3	 1	 right	 LineStimuli//1.5/stimNo84r3c18v1.5.jpg	 l	 4.773	 GoodTrial	 1.5	 bl
14	 3	 0	 x	 LineStimuli//1.5/stimNo123r0c0v1.5.jpg	 l	 3.642	 GoodTrial	 1.5	 bl
15	 3	 1	 left	 LineStimuli//1.5/stimNo96r15c4v1.5.jpg	 l	 4.410	 GoodTrial	 1.5	 bl
16	 3	 1	 right	 LineStimuli//1.5/stimNo93r14c18v1.5.jpg	 r	 6.538	 GoodTrial	 1.5	 bl
17	 3	 1	 right	 LineStimuli//1.5/stimNo81r6c17v1.5.jpg	 l	 2.246	 GoodTrial	 1.5	 bl
18	 3	 1	 left	 LineStimuli//1.5/stimNo87r12c5v1.5.jpg	 l	 4.021	 GoodTrial	 1.5	 bl
19	 3	 0	 x	 LineStimuli//1.5/stimNo148r0c0v1.5.jpg	 l	 2.025	 GoodTrial	 1.5	 bl
20	 3	 0	 x	 LineStimuli//1.5/stimNo139r0c0v1.5.jpg	 l	 4.833	 GoodTrial	 1.5	 bl
21	 3	 1	 right	 LineStimuli//1.5/stimNo82r11c15v1.5.jpg	 l	 5.803	 GoodTrial	 1.5	 bl
22	 3	 0	 x	 LineStimuli//1.5/stimNo146r0c0v1.5.jpg	 l	 2.917	 GoodTrial	 1.5	 bl
23	 3	 0	 x	 LineStimuli//1.5/stimNo155r0c0v1.5.jpg	 l	 3.107	 GoodTrial	 1.5	 bl
24	 3	 0	 x	 LineStimuli//1.5/stimNo132r0c0v1.5.jpg	 l	 4.312	 GoodTrial	 1.5	 bl
25	 3	 1	 right	 LineStimuli//1.5/stimNo107r2c19v1.5.jpg	 l	 6.658	 GoodTrial	 1.5	 bl
26	 3	 0	 x	 LineStimuli//1.5/stimNo152r0c0v1.5.jpg	 l	 4.066	 GoodTrial	 1.5	 bl
27	 3	 0	 x	 LineStimuli//1.5/stimNo121r0c0v1.5.jpg	 l	 11.596	 GoodTrial	 1.5	 bl
28	 3	 1	 left	 LineStimuli//1.5/stimNo91r9c3v1.5.jpg	 l	 2.443	 GoodTrial	 1.5	 bl
29	 3	 1	 right	 LineStimuli//1.5/stimNo115r14c18v1.5.jpg	 r	 4.624	 GoodTrial	 1.5	 bl
30	 3	 0	 x	 LineStimuli//1.5/stimNo135r0c0v1.5.jpg	 l	 3.100	 GoodTrial	 1.5	 bl
31	 3	 1	 left	 LineStimuli//1.5/stimNo114r4c4v1.5.jpg	 l	 2.249	 GoodTrial	 1.5	 bl
32	 3	 1	 right	 LineStimuli//1.5/stimNo101r5c20v1.5.jpg	 l	 6.479	 GoodTrial	 1.5	 bl
33	 3	 1	 right	 LineStimuli//1.5/stimNo111r7c17v1.5.jpg	 l	 2.456	 GoodTrial	 1.5	 bl
34	 3	 1	 left	 LineStimuli//1.5/stimNo112r9c5v1.5.jpg	 l	 4.126	 GoodTrial	 1.5	 bl
35	 3	 0	 x	 LineStimuli//1.5/stimNo158r0c0v1.5.jpg	 l	 2.645	 GoodTrial	 1.5	 bl
36	 3	 1	 right	 LineStimuli//1.5/stimNo92r6c18v1.5.jpg	 l	 5.848	 GoodTrial	 1.5	 bl
37	 3	 0	 x	 LineStimuli//1.5/stimNo151r0c0v1.5.jpg	 l	 7.865	 GoodTrial	 1.5	 bl
38	 3	 0	 x	 LineStimuli//1.5/stimNo153r0c0v1.5.jpg	 l	 2.271	 GoodTrial	 1.5	 bl
39	 3	 0	 x	 LineStimuli//1.5/stimNo141r0c0v1.5.jpg	 l	 5.009	 GoodTrial	 1.5	 bl
40	 3	 1	 left	 LineStimuli//1.5/stimNo109r8c6v1.5.jpg	 l	 2.492	 GoodTrial	 1.5	 bl
41	 3	 0	 x	 LineStimuli//1.5/stimNo143r0c0v1.5.jpg	 l	 1.977	 GoodTrial	 1.5	 bl
42	 3	 0	 x	 LineStimuli//1.5/stimNo133r0c0v1.5.jpg	 l	 2.990	 GoodTrial	 1.5	 bl
43	 3	 0	 x	 LineStimuli//1.5/stimNo127r0c0v1.5.jpg	 l	 6.669	 GoodTrial	 1.5	 bl
44	 3	 1	 left	 LineStimuli//1.5/stimNo97r15c6v1.5.jpg	 l	 8.296	 GoodTrial	 1.5	 bl
45	 3	 0	 x	 LineStimuli//1.5/stimNo150r0c0v1.5.jpg	 r	 5.611	 GoodTrial	 1.5	 bl
46	 3	 1	 left	 LineStimuli//1.5/stimNo116r7c7v1.5.jpg	 l	 1.696	 GoodTrial	 1.5	 bl
47	 3	 0	 x	 LineStimuli//1.5/stimNo159r0c0v1.5.jpg	 l	 2.202	 GoodTrial	 1.5	 bl
48	 3	 1	 left	 LineStimuli//1.5/stimNo117r7c8v1.5.jpg	 l	 2.208	 GoodTrial	 1.5	 bl
49	 3	 0	 x	 LineStimuli//1.5/stimNo147r0c0v1.5.jpg	 l	 1.973	 GoodTrial	 1.5	 bl
50	 3	 0	 x	 LineStimuli//1.5/stimNo156r0c0v1.5.jpg	 l	 3.173	 GoodTrial	 1.5	 bl
1	 4	 0	 x	 LineStimuli//1.8/stimNo157r0c0v1.8.jpg	 l	 2.088	 GoodTrial	 1.8	 bl
2	 4	 1	 left	 LineStimuli//1.8/stimNo87r14c2v1.8.jpg	 r	 3.987	 GoodTrial	 1.8	 bl
3	 4	 0	 x	 LineStimuli//1.8/stimNo133r0c0v1.8.jpg	 r	 6.083	 GoodTrial	 1.8	 bl
4	 4	 0	 x	 LineStimuli//1.8/stimNo135r0c0v1.8.jpg	 r	 4.656	 GoodTrial	 1.8	 bl
5	 4	 0	 x	 LineStimuli//1.8/stimNo132r0c0v1.8.jpg	 r	 4.551	 GoodTrial	 1.8	 bl
6	 4	 1	 left	 LineStimuli//1.8/stimNo113r6c7v1.8.jpg	 r	 2.962	 GoodTrial	 1.8	 bl
7	 4	 1	 right	 LineStimuli//1.8/stimNo118r11c15v1.8.jpg	 r	 4.521	 GoodTrial	 1.8	 bl
8	 4	 0	 x	 LineStimuli//1.8/stimNo136r0c0v1.8.jpg	 r	 5.039	 GoodTrial	 1.8	 bl
9	 4	 1	 left	 LineStimuli//1.8/stimNo89r11c6v1.8.jpg	 r	 3.724	 GoodTrial	 1.8	 bl
10	 4	 0	 x	 LineStimuli//1.8/stimNo149r0c0v1.8.jpg	 r	 6.204	 GoodTrial	 1.8	 bl
11	 4	 1	 left	 LineStimuli//1.8/stimNo85r13c2v1.8.jpg	 r	 7.019	 GoodTrial	 1.8	 bl
12	 4	 1	 left	 LineStimuli//1.8/stimNo86r14c4v1.8.jpg	 r	 7.881	 GoodTrial	 1.8	 bl
13	 4	 0	 x	 LineStimuli//1.8/stimNo154r0c0v1.8.jpg	 r	 7.569	 GoodTrial	 1.8	 bl
14	 4	 0	 x	 LineStimuli//1.8/stimNo159r0c0v1.8.jpg	 r	 4.312	 GoodTrial	 1.8	 bl
15	 4	 1	 right	 LineStimuli//1.8/stimNo109r7c17v1.8.jpg	 l	 5.310	 GoodTrial	 1.8	 bl
16	 4	 1	 left	 LineStimuli//1.8/stimNo115r5c9v1.8.jpg	 l	 1.863	 GoodTrial	 1.8	 bl
17	 4	 1	 right	 LineStimuli//1.8/stimNo119r3c21v1.8.jpg	 r	 3.051	 GoodTrial	 1.8	 bl
18	 4	 1	 left	 LineStimuli//1.8/stimNo103r15c10v1.8.jpg	 r	 6.319	 GoodTrial	 1.8	 bl
19	 4	 0	 x	 LineStimuli//1.8/stimNo158r0c0v1.8.jpg	 r	 5.309	 GoodTrial	 1.8	 bl
20	 4	 1	 left	 LineStimuli//1.8/stimNo81r6c8v1.8.jpg	 l	 1.791	 GoodTrial	 1.8	 bl
21	 4	 0	 x	 LineStimuli//1.8/stimNo141r0c0v1.8.jpg	 r	 3.095	 GoodTrial	 1.8	 bl
22	 4	 0	 x	 LineStimuli//1.8/stimNo124r0c0v1.8.jpg	 r	 5.578	 GoodTrial	 1.8	 bl
23	 4	 1	 left	 LineStimuli//1.8/stimNo94r13c8v1.8.jpg	 r	 4.823	 GoodTrial	 1.8	 bl
24	 4	 0	 x	 LineStimuli//1.8/stimNo131r0c0v1.8.jpg	 r	 5.728	 GoodTrial	 1.8	 bl
25	 4	 0	 x	 LineStimuli//1.8/stimNo152r0c0v1.8.jpg	 r	 6.589	 GoodTrial	 1.8	 bl
26	 4	 0	 x	 LineStimuli//1.8/stimNo125r0c0v1.8.jpg	 r	 3.685	 GoodTrial	 1.8	 bl
27	 4	 1	 left	 LineStimuli//1.8/stimNo88r15c9v1.8.jpg	 l	 2.620	 GoodTrial	 1.8	 bl
28	 4	 0	 x	 LineStimuli//1.8/stimNo121r0c0v1.8.jpg	 l	 3.281	 GoodTrial	 1.8	 bl
29	 4	 1	 right	 LineStimuli//1.8/stimNo97r15c18v1.8.jpg	 l	 2.764	 GoodTrial	 1.8	 bl
30	 4	 0	 x	 LineStimuli//1.8/stimNo122r0c0v1.8.jpg	 l	 5.989	 GoodTrial	 1.8	 bl
31	 4	 1	 right	 LineStimuli//1.8/stimNo83r6c13v1.8.jpg	 l	 2.080	 GoodTrial	 1.8	 bl
32	 4	 0	 x	 LineStimuli//1.8/stimNo147r0c0v1.8.jpg	 r	 3.253	 GoodTrial	 1.8	 bl
33	 4	 1	 left	 LineStimuli//1.8/stimNo106r13c9v1.8.jpg	 l	 3.119	 GoodTrial	 1.8	 bl
34	 4	 0	 x	 LineStimuli//1.8/stimNo144r0c0v1.8.jpg	 r	 3.296	 GoodTrial	 1.8	 bl
35	 4	 1	 right	 LineStimuli//1.8/stimNo108r9c21v1.8.jpg	 r	 3.485	 GoodTrial	 1.8	 bl
36	 4	 0	 x	 LineStimuli//1.8/stimNo155r0c0v1.8.jpg	 r	 2.648	 GoodTrial	 1.8	 bl
37	 4	 1	 left	 LineStimuli//1.8/stimNo105r6c5v1.8.jpg	 l	 1.769	 GoodTrial	 1.8	 bl
38	 4	 0	 x	 LineStimuli//1.8/stimNo134r0c0v1.8.jpg	 r	 3.047	 GoodTrial	 1.8	 bl
39	 4	 1	 right	 LineStimuli//1.8/stimNo99r12c16v1.8.jpg	 l	 2.045	 GoodTrial	 1.8	 bl
40	 4	 0	 x	 LineStimuli//1.8/stimNo142r0c0v1.8.jpg	 r	 3.643	 GoodTrial	 1.8	 bl
41	 4	 0	 x	 LineStimuli//1.8/stimNo128r0c0v1.8.jpg	 r	 3.745	 GoodTrial	 1.8	 bl
42	 4	 0	 x	 LineStimuli//1.8/stimNo150r0c0v1.8.jpg	 r	 3.681	 GoodTrial	 1.8	 bl
43	 4	 0	 x	 LineStimuli//1.8/stimNo126r0c0v1.8.jpg	 r	 3.707	 GoodTrial	 1.8	 bl
44	 4	 0	 x	 LineStimuli//1.8/stimNo145r0c0v1.8.jpg	 r	 3.707	 GoodTrial	 1.8	 bl
45	 4	 0	 x	 LineStimuli//1.8/stimNo129r0c0v1.8.jpg	 r	 3.275	 GoodTrial	 1.8	 bl
46	 4	 0	 x	 LineStimuli//1.8/stimNo151r0c0v1.8.jpg	 r	 4.732	 GoodTrial	 1.8	 bl
47	 4	 0	 x	 LineStimuli//1.8/stimNo123r0c0v1.8.jpg	 r	 3.097	 GoodTrial	 1.8	 bl
48	 4	 1	 right	 LineStimuli//1.8/stimNo101r4c13v1.8.jpg	 l	 1.852	 GoodTrial	 1.8	 bl
49	 4	 0	 x	 LineStimuli//1.8/stimNo143r0c0v1.8.jpg	 r	 3.015	 GoodTrial	 1.8	 bl
50	 4	 1	 right	 LineStimuli//1.8/stimNo100r9c13v1.8.jpg	 r	 3.070	 GoodTrial	 1.8	 bl
1	 5	 1	 left	 LineStimuli//2.8/stimNo98r15c2v2.8.jpg	 l	 1.658	 GoodTrial	 2.8	 bl
2	 5	 0	 x	 LineStimuli//2.8/stimNo124r0c0v2.8.jpg	 r	 2.501	 GoodTrial	 2.8	 bl
3	 5	 0	 x	 LineStimuli//2.8/stimNo126r0c0v2.8.jpg	 r	 2.173	 GoodTrial	 2.8	 bl
4	 5	 0	 x	 LineStimuli//2.8/stimNo133r0c0v2.8.jpg	 r	 2.847	 GoodTrial	 2.8	 bl
5	 5	 1	 right	 LineStimuli//2.8/stimNo101r12c16v2.8.jpg	 l	 1.594	 GoodTrial	 2.8	 bl
6	 5	 0	 x	 LineStimuli//2.8/stimNo138r0c0v2.8.jpg	 r	 2.890	 GoodTrial	 2.8	 bl
7	 5	 0	 x	 LineStimuli//2.8/stimNo137r0c0v2.8.jpg	 r	 2.715	 GoodTrial	 2.8	 bl
8	 5	 0	 x	 LineStimuli//2.8/stimNo155r0c0v2.8.jpg	 r	 2.814	 GoodTrial	 2.8	 bl
9	 5	 0	 x	 LineStimuli//2.8/stimNo144r0c0v2.8.jpg	 r	 2.777	 GoodTrial	 2.8	 bl
10	 5	 1	 right	 LineStimuli//2.8/stimNo115r9c14v2.8.jpg	 l	 1.635	 GoodTrial	 2.8	 bl
11	 5	 0	 x	 LineStimuli//2.8/stimNo160r0c0v2.8.jpg	 r	 2.152	 GoodTrial	 2.8	 bl
12	 5	 1	 left	 LineStimuli//2.8/stimNo97r11c4v2.8.jpg	 r	 2.783	 GoodTrial	 2.8	 bl
13	 5	 0	 x	 LineStimuli//2.8/stimNo148r0c0v2.8.jpg	 r	 4.280	 GoodTrial	 2.8	 bl
14	 5	 1	 right	 LineStimuli//2.8/stimNo99r9c18v2.8.jpg	 l	 1.668	 GoodTrial	 2.8	 bl
15	 5	 1	 left	 LineStimuli//2.8/stimNo108r13c6v2.8.jpg	 l	 2.020	 GoodTrial	 2.8	 bl
16	 5	 1	 left	 LineStimuli//2.8/stimNo94r13c7v2.8.jpg	 l	 1.606	 GoodTrial	 2.8	 bl
17	 5	 0	 x	 LineStimuli//2.8/stimNo139r0c0v2.8.jpg	 r	 2.745	 GoodTrial	 2.8	 bl
18	 5	 0	 x	 LineStimuli//2.8/stimNo151r0c0v2.8.jpg	 r	 2.961	 GoodTrial	 2.8	 bl
19	 5	 1	 right	 LineStimuli//2.8/stimNo120r8c20v2.8.jpg	 l	 2.694	 GoodTrial	 2.8	 bl
20	 5	 0	 x	 LineStimuli//2.8/stimNo121r0c0v2.8.jpg	 r	 3.097	 GoodTrial	 2.8	 bl
21	 5	 0	 x	 LineStimuli//2.8/stimNo147r0c0v2.8.jpg	 r	 2.729	 GoodTrial	 2.8	 bl
22	 5	 1	 right	 LineStimuli//2.8/stimNo110r7c14v2.8.jpg	 l	 1.871	 GoodTrial	 2.8	 bl
23	 5	 0	 x	 LineStimuli//2.8/stimNo125r0c0v2.8.jpg	 r	 2.484	 GoodTrial	 2.8	 bl
24	 5	 1	 right	 LineStimuli//2.8/stimNo106r13c20v2.8.jpg	 l	 1.878	 GoodTrial	 2.8	 bl
25	 5	 1	 left	 LineStimuli//2.8/stimNo86r15c6v2.8.jpg	 l	 1.747	 GoodTrial	 2.8	 bl
26	 5	 0	 x	 LineStimuli//2.8/stimNo128r0c0v2.8.jpg	 r	 2.369	 GoodTrial	 2.8	 bl
27	 5	 1	 right	 LineStimuli//2.8/stimNo103r3c19v2.8.jpg	 l	 1.829	 GoodTrial	 2.8	 bl
28	 5	 1	 right	 LineStimuli//2.8/stimNo118r5c16v2.8.jpg	 l	 1.556	 GoodTrial	 2.8	 bl
29	 5	 0	 x	 LineStimuli//2.8/stimNo143r0c0v2.8.jpg	 r	 2.050	 GoodTrial	 2.8	 bl
30	 5	 0	 x	 LineStimuli//2.8/stimNo135r0c0v2.8.jpg	 r	 2.571	 GoodTrial	 2.8	 bl
31	 5	 1	 left	 LineStimuli//2.8/stimNo107r5c6v2.8.jpg	 l	 1.491	 GoodTrial	 2.8	 bl
32	 5	 0	 x	 LineStimuli//2.8/stimNo146r0c0v2.8.jpg	 r	 1.971	 GoodTrial	 2.8	 bl
33	 5	 0	 x	 LineStimuli//2.8/stimNo132r0c0v2.8.jpg	 r	 2.545	 GoodTrial	 2.8	 bl
34	 5	 0	 x	 LineStimuli//2.8/stimNo152r0c0v2.8.jpg	 r	 1.952	 GoodTrial	 2.8	 bl
35	 5	 0	 x	 LineStimuli//2.8/stimNo136r0c0v2.8.jpg	 r	 2.392	 GoodTrial	 2.8	 bl
36	 5	 0	 x	 LineStimuli//2.8/stimNo123r0c0v2.8.jpg	 r	 2.771	 GoodTrial	 2.8	 bl
37	 5	 1	 right	 LineStimuli//2.8/stimNo117r11c17v2.8.jpg	 l	 2.838	 GoodTrial	 2.8	 bl
38	 5	 1	 left	 LineStimuli//2.8/stimNo116r4c7v2.8.jpg	 l	 2.475	 GoodTrial	 2.8	 bl
39	 5	 1	 left	 LineStimuli//2.8/stimNo82r4c6v2.8.jpg	 l	 1.557	 GoodTrial	 2.8	 bl
40	 5	 1	 right	 LineStimuli//2.8/stimNo92r14c21v2.8.jpg	 l	 2.276	 GoodTrial	 2.8	 bl
41	 5	 1	 left	 LineStimuli//2.8/stimNo84r3c9v2.8.jpg	 l	 1.538	 GoodTrial	 2.8	 bl
42	 5	 0	 x	 LineStimuli//2.8/stimNo154r0c0v2.8.jpg	 r	 2.256	 GoodTrial	 2.8	 bl
43	 5	 0	 x	 LineStimuli//2.8/stimNo122r0c0v2.8.jpg	 r	 3.592	 GoodTrial	 2.8	 bl
44	 5	 1	 right	 LineStimuli//2.8/stimNo93r9c20v2.8.jpg	 l	 1.549	 GoodTrial	 2.8	 bl
45	 5	 1	 left	 LineStimuli//2.8/stimNo87r11c8v2.8.jpg	 l	 1.505	 GoodTrial	 2.8	 bl
46	 5	 0	 x	 LineStimuli//2.8/stimNo158r0c0v2.8.jpg	 r	 2.147	 GoodTrial	 2.8	 bl
47	 5	 1	 right	 LineStimuli//2.8/stimNo112r13c17v2.8.jpg	 l	 1.568	 GoodTrial	 2.8	 bl
48	 5	 1	 left	 LineStimuli//2.8/stimNo119r8c5v2.8.jpg	 l	 1.539	 GoodTrial	 2.8	 bl
49	 5	 1	 left	 LineStimuli//2.8/stimNo102r3c2v2.8.jpg	 r	 2.198	 GoodTrial	 2.8	 bl
50	 5	 1	 left	 LineStimuli//2.8/stimNo88r15c3v2.8.jpg	 l	 1.823	 GoodTrial	 2.8	 bl
1	 6	 0	 x	 LineStimuli//4.3/stimNo129r0c0v4.3.jpg	 r	 2.216	 GoodTrial	 4.3	 bl
2	 6	 0	 x	 LineStimuli//4.3/stimNo140r0c0v4.3.jpg	 r	 2.053	 GoodTrial	 4.3	 bl
3	 6	 1	 left	 LineStimuli//4.3/stimNo83r4c2v4.3.jpg	 l	 1.491	 GoodTrial	 4.3	 bl
4	 6	 1	 left	 LineStimuli//4.3/stimNo100r8c3v4.3.jpg	 l	 1.518	 GoodTrial	 4.3	 bl
5	 6	 1	 left	 LineStimuli//4.3/stimNo103r10c4v4.3.jpg	 l	 1.453	 GoodTrial	 4.3	 bl
6	 6	 1	 left	 LineStimuli//4.3/stimNo90r10c4v4.3.jpg	 l	 1.456	 GoodTrial	 4.3	 bl
7	 6	 0	 x	 LineStimuli//4.3/stimNo142r0c0v4.3.jpg	 r	 2.489	 GoodTrial	 4.3	 bl
8	 6	 0	 x	 LineStimuli//4.3/stimNo137r0c0v4.3.jpg	 r	 1.866	 GoodTrial	 4.3	 bl
9	 6	 1	 left	 LineStimuli//4.3/stimNo110r6c7v4.3.jpg	 l	 1.421	 GoodTrial	 4.3	 bl
10	 6	 0	 x	 LineStimuli//4.3/stimNo123r0c0v4.3.jpg	 r	 1.760	 GoodTrial	 4.3	 bl
11	 6	 0	 x	 LineStimuli//4.3/stimNo147r0c0v4.3.jpg	 r	 1.914	 GoodTrial	 4.3	 bl
12	 6	 1	 left	 LineStimuli//4.3/stimNo86r7c3v4.3.jpg	 l	 1.434	 GoodTrial	 4.3	 bl
13	 6	 0	 x	 LineStimuli//4.3/stimNo127r0c0v4.3.jpg	 r	 1.658	 GoodTrial	 4.3	 bl
14	 6	 0	 x	 LineStimuli//4.3/stimNo160r0c0v4.3.jpg	 r	 2.175	 GoodTrial	 4.3	 bl
15	 6	 1	 left	 LineStimuli//4.3/stimNo93r9c9v4.3.jpg	 l	 1.783	 GoodTrial	 4.3	 bl
16	 6	 0	 x	 LineStimuli//4.3/stimNo155r0c0v4.3.jpg	 r	 1.702	 GoodTrial	 4.3	 bl
17	 6	 0	 x	 LineStimuli//4.3/stimNo156r0c0v4.3.jpg	 r	 1.659	 GoodTrial	 4.3	 bl
18	 6	 0	 x	 LineStimuli//4.3/stimNo157r0c0v4.3.jpg	 r	 1.781	 GoodTrial	 4.3	 bl
19	 6	 1	 right	 LineStimuli//4.3/stimNo114r10c15v4.3.jpg	 l	 1.469	 GoodTrial	 4.3	 bl
20	 6	 1	 left	 LineStimuli//4.3/stimNo106r8c2v4.3.jpg	 l	 1.672	 GoodTrial	 4.3	 bl
21	 6	 0	 x	 LineStimuli//4.3/stimNo126r0c0v4.3.jpg	 r	 1.801	 GoodTrial	 4.3	 bl
22	 6	 1	 right	 LineStimuli//4.3/stimNo91r9c13v4.3.jpg	 l	 1.497	 GoodTrial	 4.3	 bl
23	 6	 0	 x	 LineStimuli//4.3/stimNo136r0c0v4.3.jpg	 r	 1.774	 GoodTrial	 4.3	 bl
24	 6	 1	 left	 LineStimuli//4.3/stimNo87r3c5v4.3.jpg	 l	 1.521	 GoodTrial	 4.3	 bl
25	 6	 1	 right	 LineStimuli//4.3/stimNo115r10c18v4.3.jpg	 l	 1.569	 GoodTrial	 4.3	 bl
26	 6	 1	 right	 LineStimuli//4.3/stimNo97r6c21v4.3.jpg	 l	 2.008	 GoodTrial	 4.3	 bl
27	 6	 0	 x	 LineStimuli//4.3/stimNo133r0c0v4.3.jpg	 r	 2.428	 GoodTrial	 4.3	 bl
28	 6	 0	 x	 LineStimuli//4.3/stimNo122r0c0v4.3.jpg	 r	 2.256	 GoodTrial	 4.3	 bl
29	 6	 0	 x	 LineStimuli//4.3/stimNo132r0c0v4.3.jpg	 r	 1.944	 GoodTrial	 4.3	 bl
30	 6	 1	 right	 LineStimuli//4.3/stimNo120r8c18v4.3.jpg	 l	 1.560	 GoodTrial	 4.3	 bl
31	 6	 0	 x	 LineStimuli//4.3/stimNo125r0c0v4.3.jpg	 r	 1.868	 GoodTrial	 4.3	 bl
32	 6	 1	 right	 LineStimuli//4.3/stimNo112r10c16v4.3.jpg	 l	 1.442	 GoodTrial	 4.3	 bl
33	 6	 0	 x	 LineStimuli//4.3/stimNo128r0c0v4.3.jpg	 r	 2.173	 GoodTrial	 4.3	 bl
34	 6	 0	 x	 LineStimuli//4.3/stimNo124r0c0v4.3.jpg	 r	 1.972	 GoodTrial	 4.3	 bl
35	 6	 0	 x	 LineStimuli//4.3/stimNo153r0c0v4.3.jpg	 r	 1.981	 GoodTrial	 4.3	 bl
36	 6	 1	 left	 LineStimuli//4.3/stimNo113r11c7v4.3.jpg	 l	 1.616	 GoodTrial	 4.3	 bl
37	 6	 1	 left	 LineStimuli//4.3/stimNo95r11c9v4.3.jpg	 l	 1.424	 GoodTrial	 4.3	 bl
38	 6	 1	 left	 LineStimuli//4.3/stimNo101r5c5v4.3.jpg	 l	 1.471	 GoodTrial	 4.3	 bl
39	 6	 0	 x	 LineStimuli//4.3/stimNo144r0c0v4.3.jpg	 r	 2.182	 GoodTrial	 4.3	 bl
40	 6	 0	 x	 LineStimuli//4.3/stimNo130r0c0v4.3.jpg	 r	 1.804	 GoodTrial	 4.3	 bl
41	 6	 1	 right	 LineStimuli//4.3/stimNo119r12c17v4.3.jpg	 l	 1.672	 GoodTrial	 4.3	 bl
42	 6	 1	 right	 LineStimuli//4.3/stimNo92r2c20v4.3.jpg	 l	 1.680	 GoodTrial	 4.3	 bl
43	 6	 0	 x	 LineStimuli//4.3/stimNo150r0c0v4.3.jpg	 r	 2.018	 GoodTrial	 4.3	 bl
44	 6	 1	 right	 LineStimuli//4.3/stimNo89r3c17v4.3.jpg	 l	 1.485	 GoodTrial	 4.3	 bl
45	 6	 0	 x	 LineStimuli//4.3/stimNo135r0c0v4.3.jpg	 r	 1.665	 GoodTrial	 4.3	 bl
46	 6	 0	 x	 LineStimuli//4.3/stimNo121r0c0v4.3.jpg	 r	 1.717	 GoodTrial	 4.3	 bl
47	 6	 0	 x	 LineStimuli//4.3/stimNo159r0c0v4.3.jpg	 r	 1.908	 GoodTrial	 4.3	 bl
48	 6	 0	 x	 LineStimuli//4.3/stimNo143r0c0v4.3.jpg	 r	 1.696	 GoodTrial	 4.3	 bl
49	 6	 1	 left	 LineStimuli//4.3/stimNo108r5c8v4.3.jpg	 l	 1.393	 GoodTrial	 4.3	 bl
50	 6	 1	 right	 LineStimuli//4.3/stimNo118r11c13v4.3.jpg	 l	 1.508	 GoodTrial	 4.3	 bl
1	 7	 0	 x	 LineStimuli//2.3/stimNo126r0c0v2.3.jpg	 r	 2.053	 GoodTrial	 2.3	 bl
2	 7	 1	 left	 LineStimuli//2.3/stimNo86r8c9v2.3.jpg	 l	 1.987	 GoodTrial	 2.3	 bl
3	 7	 1	 right	 LineStimuli//2.3/stimNo91r11c20v2.3.jpg	 r	 2.059	 GoodTrial	 2.3	 bl
4	 7	 0	 x	 LineStimuli//2.3/stimNo132r0c0v2.3.jpg	 r	 2.856	 GoodTrial	 2.3	 bl
5	 7	 1	 left	 LineStimuli//2.3/stimNo97r3c3v2.3.jpg	 l	 2.500	 GoodTrial	 2.3	 bl
6	 7	 1	 left	 LineStimuli//2.3/stimNo113r3c8v2.3.jpg	 l	 1.929	 GoodTrial	 2.3	 bl
7	 7	 1	 right	 LineStimuli//2.3/stimNo111r11c21v2.3.jpg	 l	 2.840	 GoodTrial	 2.3	 bl
8	 7	 1	 right	 LineStimuli//2.3/stimNo107r11c15v2.3.jpg	 l	 1.713	 GoodTrial	 2.3	 bl
9	 7	 0	 x	 LineStimuli//2.3/stimNo134r0c0v2.3.jpg	 r	 3.207	 GoodTrial	 2.3	 bl
10	 7	 0	 x	 LineStimuli//2.3/stimNo136r0c0v2.3.jpg	 r	 2.193	 GoodTrial	 2.3	 bl
11	 7	 1	 right	 LineStimuli//2.3/stimNo89r8c21v2.3.jpg	 l	 1.783	 GoodTrial	 2.3	 bl
12	 7	 0	 x	 LineStimuli//2.3/stimNo145r0c0v2.3.jpg	 r	 2.377	 GoodTrial	 2.3	 bl
13	 7	 0	 x	 LineStimuli//2.3/stimNo123r0c0v2.3.jpg	 r	 2.462	 GoodTrial	 2.3	 bl
14	 7	 1	 left	 LineStimuli//2.3/stimNo115r7c3v2.3.jpg	 l	 1.663	 GoodTrial	 2.3	 bl
15	 7	 0	 x	 LineStimuli//2.3/stimNo143r0c0v2.3.jpg	 r	 2.109	 GoodTrial	 2.3	 bl
16	 7	 1	 left	 LineStimuli//2.3/stimNo117r11c8v2.3.jpg	 l	 1.627	 GoodTrial	 2.3	 bl
17	 7	 0	 x	 LineStimuli//2.3/stimNo151r0c0v2.3.jpg	 r	 2.302	 GoodTrial	 2.3	 bl
18	 7	 0	 x	 LineStimuli//2.3/stimNo140r0c0v2.3.jpg	 r	 2.547	 GoodTrial	 2.3	 bl
19	 7	 1	 left	 LineStimuli//2.3/stimNo95r13c9v2.3.jpg	 l	 2.005	 GoodTrial	 2.3	 bl
20	 7	 0	 x	 LineStimuli//2.3/stimNo129r0c0v2.3.jpg	 r	 2.170	 GoodTrial	 2.3	 bl
21	 7	 1	 left	 LineStimuli//2.3/stimNo82r12c4v2.3.jpg	 l	 1.612	 GoodTrial	 2.3	 bl
22	 7	 0	 x	 LineStimuli//2.3/stimNo146r0c0v2.3.jpg	 r	 1.840	 GoodTrial	 2.3	 bl
23	 7	 0	 x	 LineStimuli//2.3/stimNo128r0c0v2.3.jpg	 r	 2.223	 GoodTrial	 2.3	 bl
24	 7	 0	 x	 LineStimuli//2.3/stimNo142r0c0v2.3.jpg	 r	 2.320	 GoodTrial	 2.3	 bl
25	 7	 1	 right	 LineStimuli//2.3/stimNo120r4c17v2.3.jpg	 l	 1.640	 GoodTrial	 2.3	 bl
26	 7	 0	 x	 LineStimuli//2.3/stimNo135r0c0v2.3.jpg	 r	 2.570	 GoodTrial	 2.3	 bl
27	 7	 1	 right	 LineStimuli//2.3/stimNo101r8c14v2.3.jpg	 l	 1.513	 GoodTrial	 2.3	 bl
28	 7	 0	 x	 LineStimuli//2.3/stimNo122r0c0v2.3.jpg	 r	 1.884	 GoodTrial	 2.3	 bl
29	 7	 1	 right	 LineStimuli//2.3/stimNo90r14c21v2.3.jpg	 l	 2.130	 GoodTrial	 2.3	 bl
30	 7	 1	 left	 LineStimuli//2.3/stimNo81r4c3v2.3.jpg	 l	 1.751	 GoodTrial	 2.3	 bl
31	 7	 0	 x	 LineStimuli//2.3/stimNo156r0c0v2.3.jpg	 r	 1.809	 GoodTrial	 2.3	 bl
32	 7	 0	 x	 LineStimuli//2.3/stimNo125r0c0v2.3.jpg	 r	 2.936	 GoodTrial	 2.3	 bl
33	 7	 1	 right	 LineStimuli//2.3/stimNo105r14c14v2.3.jpg	 l	 1.626	 GoodTrial	 2.3	 bl
34	 7	 1	 left	 LineStimuli//2.3/stimNo96r3c3v2.3.jpg	 l	 1.588	 GoodTrial	 2.3	 bl
35	 7	 1	 right	 LineStimuli//2.3/stimNo109r2c17v2.3.jpg	 l	 2.100	 GoodTrial	 2.3	 bl
36	 7	 0	 x	 LineStimuli//2.3/stimNo160r0c0v2.3.jpg	 r	 2.832	 GoodTrial	 2.3	 bl
37	 7	 1	 right	 LineStimuli//2.3/stimNo102r6c18v2.3.jpg	 l	 1.522	 GoodTrial	 2.3	 bl
38	 7	 1	 left	 LineStimuli//2.3/stimNo108r15c6v2.3.jpg	 l	 1.847	 GoodTrial	 2.3	 bl
39	 7	 0	 x	 LineStimuli//2.3/stimNo154r0c0v2.3.jpg	 r	 1.831	 GoodTrial	 2.3	 bl
40	 7	 0	 x	 LineStimuli//2.3/stimNo131r0c0v2.3.jpg	 r	 2.987	 GoodTrial	 2.3	 bl
41	 7	 1	 right	 LineStimuli//2.3/stimNo98r12c21v2.3.jpg	 l	 1.616	 GoodTrial	 2.3	 bl
42	 7	 1	 left	 LineStimuli//2.3/stimNo104r2c4v2.3.jpg	 l	 1.889	 GoodTrial	 2.3	 bl
43	 7	 1	 left	 LineStimuli//2.3/stimNo88r15c2v2.3.jpg	 l	 1.595	 GoodTrial	 2.3	 bl
44	 7	 0	 x	 LineStimuli//2.3/stimNo148r0c0v2.3.jpg	 r	 2.190	 GoodTrial	 2.3	 bl
45	 7	 1	 right	 LineStimuli//2.3/stimNo92r10c17v2.3.jpg	 l	 1.520	 GoodTrial	 2.3	 bl
46	 7	 0	 x	 LineStimuli//2.3/stimNo158r0c0v2.3.jpg	 r	 2.108	 GoodTrial	 2.3	 bl
47	 7	 1	 left	 LineStimuli//2.3/stimNo94r8c9v2.3.jpg	 r	 2.057	 GoodTrial	 2.3	 bl
48	 7	 0	 x	 LineStimuli//2.3/stimNo141r0c0v2.3.jpg	 r	 2.344	 GoodTrial	 2.3	 bl
49	 7	 1	 right	 LineStimuli//2.3/stimNo99r2c13v2.3.jpg	 l	 1.673	 GoodTrial	 2.3	 bl
50	 7	 1	 right	 LineStimuli//2.3/stimNo87r13c19v2.3.jpg	 l	 1.649	 GoodTrial	 2.3	 bl
