Trial	Block	Target_pr	Target_side	Name	Key	RT	Message	Block_Type	Condition
1	 1	 1	 right	 LineStimuli//1.5/stimNo105r3c18v1.5.jpg	 r	 8.459	 GoodTrial	 1.5	 bl
2	 1	 1	 left	 LineStimuli//1.5/stimNo112r9c5v1.5.jpg	 r	 6.138	 GoodTrial	 1.5	 bl
3	 1	 0	 x	 LineStimuli//1.5/stimNo125r0c0v1.5.jpg	 r	 8.139	 GoodTrial	 1.5	 bl
4	 1	 0	 x	 LineStimuli//1.5/stimNo149r0c0v1.5.jpg	 r	 25.550	 GoodTrial	 1.5	 bl
5	 1	 1	 right	 LineStimuli//1.5/stimNo103r13c17v1.5.jpg	 l	 3.398	 GoodTrial	 1.5	 bl
6	 1	 0	 x	 LineStimuli//1.5/stimNo138r0c0v1.5.jpg	 r	 22.738	 GoodTrial	 1.5	 bl
7	 1	 1	 right	 LineStimuli//1.5/stimNo107r2c19v1.5.jpg	 r	 19.694	 GoodTrial	 1.5	 bl
8	 1	 0	 x	 LineStimuli//1.5/stimNo135r0c0v1.5.jpg	 l	 5.133	 GoodTrial	 1.5	 bl
9	 1	 0	 x	 LineStimuli//1.5/stimNo136r0c0v1.5.jpg	 r	 11.731	 GoodTrial	 1.5	 bl
10	 1	 1	 left	 LineStimuli//1.5/stimNo106r3c7v1.5.jpg	 r	 9.917	 GoodTrial	 1.5	 bl
11	 1	 0	 x	 LineStimuli//1.5/stimNo145r0c0v1.5.jpg	 r	 13.944	 GoodTrial	 1.5	 bl
12	 1	 1	 right	 LineStimuli//1.5/stimNo84r3c18v1.5.jpg	 l	 10.810	 GoodTrial	 1.5	 bl
13	 1	 0	 x	 LineStimuli//1.5/stimNo132r0c0v1.5.jpg	 r	 10.154	 GoodTrial	 1.5	 bl
14	 1	 1	 left	 LineStimuli//1.5/stimNo120r14c2v1.5.jpg	 r	 9.412	 GoodTrial	 1.5	 bl
15	 1	 0	 x	 LineStimuli//1.5/stimNo129r0c0v1.5.jpg	 r	 12.697	 GoodTrial	 1.5	 bl
16	 1	 1	 left	 LineStimuli//1.5/stimNo83r12c7v1.5.jpg	 r	 14.039	 GoodTrial	 1.5	 bl
17	 1	 1	 left	 LineStimuli//1.5/stimNo96r15c4v1.5.jpg	 r	 22.139	 GoodTrial	 1.5	 bl
18	 1	 1	 right	 LineStimuli//1.5/stimNo104r5c18v1.5.jpg	 r	 20.017	 GoodTrial	 1.5	 bl
19	 1	 0	 x	 LineStimuli//1.5/stimNo158r0c0v1.5.jpg	 l	 6.898	 GoodTrial	 1.5	 bl
20	 1	 1	 left	 LineStimuli//1.5/stimNo102r7c6v1.5.jpg	 l	 6.151	 GoodTrial	 1.5	 bl
21	 1	 1	 right	 LineStimuli//1.5/stimNo86r6c16v1.5.jpg	 r	 11.872	 GoodTrial	 1.5	 bl
22	 1	 1	 left	 LineStimuli//1.5/stimNo114r4c4v1.5.jpg	 r	 13.896	 GoodTrial	 1.5	 bl
23	 1	 0	 x	 LineStimuli//1.5/stimNo143r0c0v1.5.jpg	 r	 18.064	 GoodTrial	 1.5	 bl
24	 1	 1	 right	 LineStimuli//1.5/stimNo108r13c15v1.5.jpg	 r	 13.455	 GoodTrial	 1.5	 bl
25	 1	 1	 right	 LineStimuli//1.5/stimNo111r7c17v1.5.jpg	 r	 11.954	 GoodTrial	 1.5	 bl
26	 1	 1	 left	 LineStimuli//1.5/stimNo117r7c8v1.5.jpg	 l	 2.656	 GoodTrial	 1.5	 bl
27	 1	 0	 x	 LineStimuli//1.5/stimNo139r0c0v1.5.jpg	 r	 21.664	 GoodTrial	 1.5	 bl
28	 1	 0	 x	 LineStimuli//1.5/stimNo134r0c0v1.5.jpg	 r	 7.884	 GoodTrial	 1.5	 bl
29	 1	 0	 x	 LineStimuli//1.5/stimNo126r0c0v1.5.jpg	 r	 23.035	 GoodTrial	 1.5	 bl
30	 1	 1	 left	 LineStimuli//1.5/stimNo110r7c3v1.5.jpg	 r	 13.790	 GoodTrial	 1.5	 bl
31	 1	 0	 x	 LineStimuli//1.5/stimNo127r0c0v1.5.jpg	 r	 8.567	 GoodTrial	 1.5	 bl
32	 1	 1	 left	 LineStimuli//1.5/stimNo85r2c5v1.5.jpg	 l	 5.629	 GoodTrial	 1.5	 bl
33	 1	 0	 x	 LineStimuli//1.5/stimNo154r0c0v1.5.jpg	 r	 12.155	 GoodTrial	 1.5	 bl
34	 1	 0	 x	 LineStimuli//1.5/stimNo151r0c0v1.5.jpg	 r	 16.576	 GoodTrial	 1.5	 bl
35	 1	 0	 x	 LineStimuli//1.5/stimNo130r0c0v1.5.jpg	 r	 7.367	 GoodTrial	 1.5	 bl
36	 1	 1	 right	 LineStimuli//1.5/stimNo100r6c20v1.5.jpg	 l	 21.584	 GoodTrial	 1.5	 bl
37	 1	 0	 x	 LineStimuli//1.5/stimNo148r0c0v1.5.jpg	 r	 5.967	 GoodTrial	 1.5	 bl
38	 1	 1	 right	 LineStimuli//1.5/stimNo118r9c20v1.5.jpg	 l	 12.340	 GoodTrial	 1.5	 bl
39	 1	 1	 left	 LineStimuli//1.5/stimNo116r7c7v1.5.jpg	 l	 3.755	 GoodTrial	 1.5	 bl
40	 1	 0	 x	 LineStimuli//1.5/stimNo123r0c0v1.5.jpg	 l	 7.000	 GoodTrial	 1.5	 bl
41	 1	 1	 left	 LineStimuli//1.5/stimNo87r12c5v1.5.jpg	 r	 9.537	 GoodTrial	 1.5	 bl
42	 1	 1	 left	 LineStimuli//1.5/stimNo88r6c7v1.5.jpg	 l	 3.546	 GoodTrial	 1.5	 bl
43	 1	 1	 right	 LineStimuli//1.5/stimNo92r6c18v1.5.jpg	 l	 4.497	 GoodTrial	 1.5	 bl
44	 1	 1	 left	 LineStimuli//1.5/stimNo94r10c6v1.5.jpg	 r	 5.847	 GoodTrial	 1.5	 bl
45	 1	 0	 x	 LineStimuli//1.5/stimNo146r0c0v1.5.jpg	 r	 13.696	 GoodTrial	 1.5	 bl
46	 1	 0	 x	 LineStimuli//1.5/stimNo150r0c0v1.5.jpg	 r	 17.144	 GoodTrial	 1.5	 bl
47	 1	 1	 left	 LineStimuli//1.5/stimNo91r9c3v1.5.jpg	 l	 4.146	 GoodTrial	 1.5	 bl
48	 1	 0	 x	 LineStimuli//1.5/stimNo131r0c0v1.5.jpg	 r	 10.797	 GoodTrial	 1.5	 bl
49	 1	 1	 right	 LineStimuli//1.5/stimNo101r5c20v1.5.jpg	 r	 10.024	 GoodTrial	 1.5	 bl
50	 1	 1	 right	 LineStimuli//1.5/stimNo119r6c19v1.5.jpg	 r	 11.947	 GoodTrial	 1.5	 bl
1	 2	 0	 x	 LineStimuli//3.3/stimNo122r0c0v3.3.jpg	 l	 5.696	 GoodTrial	 3.3	 bl
2	 2	 1	 left	 LineStimuli//3.3/stimNo100r3c3v3.3.jpg	 l	 2.343	 GoodTrial	 3.3	 bl
3	 2	 0	 x	 LineStimuli//3.3/stimNo160r0c0v3.3.jpg	 r	 3.235	 GoodTrial	 3.3	 bl
4	 2	 1	 right	 LineStimuli//3.3/stimNo96r8c18v3.3.jpg	 l	 2.227	 GoodTrial	 3.3	 bl
5	 2	 0	 x	 LineStimuli//3.3/stimNo139r0c0v3.3.jpg	 r	 3.336	 GoodTrial	 3.3	 bl
6	 2	 0	 x	 LineStimuli//3.3/stimNo121r0c0v3.3.jpg	 r	 4.002	 GoodTrial	 3.3	 bl
7	 2	 0	 x	 LineStimuli//3.3/stimNo130r0c0v3.3.jpg	 r	 2.931	 GoodTrial	 3.3	 bl
8	 2	 1	 left	 LineStimuli//3.3/stimNo85r6c4v3.3.jpg	 l	 2.361	 GoodTrial	 3.3	 bl
9	 2	 1	 right	 LineStimuli//3.3/stimNo91r12c16v3.3.jpg	 l	 2.114	 GoodTrial	 3.3	 bl
10	 2	 0	 x	 LineStimuli//3.3/stimNo152r0c0v3.3.jpg	 r	 2.539	 GoodTrial	 3.3	 bl
11	 2	 1	 right	 LineStimuli//3.3/stimNo99r6c17v3.3.jpg	 l	 2.213	 GoodTrial	 3.3	 bl
12	 2	 0	 x	 LineStimuli//3.3/stimNo144r0c0v3.3.jpg	 r	 3.257	 GoodTrial	 3.3	 bl
13	 2	 0	 x	 LineStimuli//3.3/stimNo134r0c0v3.3.jpg	 r	 2.960	 GoodTrial	 3.3	 bl
14	 2	 1	 right	 LineStimuli//3.3/stimNo116r10c14v3.3.jpg	 l	 7.173	 GoodTrial	 3.3	 bl
15	 2	 0	 x	 LineStimuli//3.3/stimNo157r0c0v3.3.jpg	 r	 2.683	 GoodTrial	 3.3	 bl
16	 2	 1	 right	 LineStimuli//3.3/stimNo113r13c15v3.3.jpg	 l	 2.265	 GoodTrial	 3.3	 bl
17	 2	 0	 x	 LineStimuli//3.3/stimNo153r0c0v3.3.jpg	 r	 2.792	 GoodTrial	 3.3	 bl
18	 2	 0	 x	 LineStimuli//3.3/stimNo147r0c0v3.3.jpg	 r	 4.119	 GoodTrial	 3.3	 bl
19	 2	 0	 x	 LineStimuli//3.3/stimNo151r0c0v3.3.jpg	 r	 2.894	 GoodTrial	 3.3	 bl
20	 2	 1	 left	 LineStimuli//3.3/stimNo104r4c4v3.3.jpg	 l	 2.173	 GoodTrial	 3.3	 bl
21	 2	 1	 right	 LineStimuli//3.3/stimNo98r4c21v3.3.jpg	 r	 2.245	 GoodTrial	 3.3	 bl
22	 2	 1	 left	 LineStimuli//3.3/stimNo103r6c6v3.3.jpg	 l	 3.167	 GoodTrial	 3.3	 bl
23	 2	 0	 x	 LineStimuli//3.3/stimNo129r0c0v3.3.jpg	 r	 4.009	 GoodTrial	 3.3	 bl
24	 2	 1	 left	 LineStimuli//3.3/stimNo83r8c3v3.3.jpg	 l	 2.220	 GoodTrial	 3.3	 bl
25	 2	 0	 x	 LineStimuli//3.3/stimNo125r0c0v3.3.jpg	 r	 2.369	 GoodTrial	 3.3	 bl
26	 2	 1	 left	 LineStimuli//3.3/stimNo106r9c9v3.3.jpg	 l	 2.738	 GoodTrial	 3.3	 bl
27	 2	 1	 right	 LineStimuli//3.3/stimNo102r13c13v3.3.jpg	 l	 2.470	 GoodTrial	 3.3	 bl
28	 2	 1	 right	 LineStimuli//3.3/stimNo87r15c13v3.3.jpg	 l	 5.348	 GoodTrial	 3.3	 bl
29	 2	 0	 x	 LineStimuli//3.3/stimNo146r0c0v3.3.jpg	 r	 2.927	 GoodTrial	 3.3	 bl
30	 2	 1	 left	 LineStimuli//3.3/stimNo95r15c8v3.3.jpg	 l	 3.362	 GoodTrial	 3.3	 bl
31	 2	 1	 left	 LineStimuli//3.3/stimNo81r15c8v3.3.jpg	 l	 3.584	 GoodTrial	 3.3	 bl
32	 2	 1	 left	 LineStimuli//3.3/stimNo94r14c9v3.3.jpg	 l	 2.244	 GoodTrial	 3.3	 bl
33	 2	 0	 x	 LineStimuli//3.3/stimNo159r0c0v3.3.jpg	 r	 4.286	 GoodTrial	 3.3	 bl
34	 2	 1	 right	 LineStimuli//3.3/stimNo101r7c16v3.3.jpg	 l	 2.171	 GoodTrial	 3.3	 bl
35	 2	 0	 x	 LineStimuli//3.3/stimNo145r0c0v3.3.jpg	 r	 2.440	 GoodTrial	 3.3	 bl
36	 2	 0	 x	 LineStimuli//3.3/stimNo150r0c0v3.3.jpg	 r	 8.173	 GoodTrial	 3.3	 bl
37	 2	 0	 x	 LineStimuli//3.3/stimNo142r0c0v3.3.jpg	 r	 3.307	 GoodTrial	 3.3	 bl
38	 2	 1	 right	 LineStimuli//3.3/stimNo118r3c16v3.3.jpg	 l	 2.716	 GoodTrial	 3.3	 bl
39	 2	 1	 right	 LineStimuli//3.3/stimNo114r11c21v3.3.jpg	 l	 3.040	 GoodTrial	 3.3	 bl
40	 2	 0	 x	 LineStimuli//3.3/stimNo132r0c0v3.3.jpg	 r	 2.760	 GoodTrial	 3.3	 bl
41	 2	 1	 right	 LineStimuli//3.3/stimNo107r2c17v3.3.jpg	 l	 2.651	 GoodTrial	 3.3	 bl
42	 2	 0	 x	 LineStimuli//3.3/stimNo123r0c0v3.3.jpg	 r	 2.743	 GoodTrial	 3.3	 bl
43	 2	 1	 right	 LineStimuli//3.3/stimNo84r6c16v3.3.jpg	 l	 2.640	 GoodTrial	 3.3	 bl
44	 2	 1	 left	 LineStimuli//3.3/stimNo108r13c2v3.3.jpg	 l	 2.851	 GoodTrial	 3.3	 bl
45	 2	 0	 x	 LineStimuli//3.3/stimNo136r0c0v3.3.jpg	 r	 3.130	 GoodTrial	 3.3	 bl
46	 2	 1	 left	 LineStimuli//3.3/stimNo86r5c7v3.3.jpg	 l	 2.185	 GoodTrial	 3.3	 bl
47	 2	 0	 x	 LineStimuli//3.3/stimNo131r0c0v3.3.jpg	 r	 3.607	 GoodTrial	 3.3	 bl
48	 2	 0	 x	 LineStimuli//3.3/stimNo155r0c0v3.3.jpg	 l	 3.812	 GoodTrial	 3.3	 bl
49	 2	 0	 x	 LineStimuli//3.3/stimNo156r0c0v3.3.jpg	 r	 2.568	 GoodTrial	 3.3	 bl
50	 2	 0	 x	 LineStimuli//3.3/stimNo133r0c0v3.3.jpg	 r	 3.212	 GoodTrial	 3.3	 bl
1	 3	 1	 left	 LineStimuli//2.8/stimNo88r15c3v2.8.jpg	 l	 3.095	 GoodTrial	 2.8	 bl
2	 3	 1	 right	 LineStimuli//2.8/stimNo106r13c20v2.8.jpg	 l	 2.450	 GoodTrial	 2.8	 bl
3	 3	 0	 x	 LineStimuli//2.8/stimNo160r0c0v2.8.jpg	 r	 4.249	 GoodTrial	 2.8	 bl
4	 3	 1	 right	 LineStimuli//2.8/stimNo92r14c21v2.8.jpg	 l	 2.568	 GoodTrial	 2.8	 bl
5	 3	 1	 right	 LineStimuli//2.8/stimNo93r9c20v2.8.jpg	 l	 2.347	 GoodTrial	 2.8	 bl
6	 3	 0	 x	 LineStimuli//2.8/stimNo158r0c0v2.8.jpg	 r	 6.180	 GoodTrial	 2.8	 bl
7	 3	 1	 left	 LineStimuli//2.8/stimNo82r4c6v2.8.jpg	 l	 2.352	 GoodTrial	 2.8	 bl
8	 3	 0	 x	 LineStimuli//2.8/stimNo138r0c0v2.8.jpg	 r	 3.621	 GoodTrial	 2.8	 bl
9	 3	 1	 right	 LineStimuli//2.8/stimNo109r6c18v2.8.jpg	 l	 2.453	 GoodTrial	 2.8	 bl
10	 3	 1	 left	 LineStimuli//2.8/stimNo102r3c2v2.8.jpg	 l	 2.305	 GoodTrial	 2.8	 bl
11	 3	 1	 right	 LineStimuli//2.8/stimNo110r7c14v2.8.jpg	 l	 2.167	 GoodTrial	 2.8	 bl
12	 3	 0	 x	 LineStimuli//2.8/stimNo139r0c0v2.8.jpg	 r	 3.056	 GoodTrial	 2.8	 bl
13	 3	 1	 left	 LineStimuli//2.8/stimNo105r5c4v2.8.jpg	 l	 2.041	 GoodTrial	 2.8	 bl
14	 3	 0	 x	 LineStimuli//2.8/stimNo132r0c0v2.8.jpg	 r	 2.905	 GoodTrial	 2.8	 bl
15	 3	 1	 right	 LineStimuli//2.8/stimNo111r9c15v2.8.jpg	 l	 2.552	 GoodTrial	 2.8	 bl
16	 3	 1	 left	 LineStimuli//2.8/stimNo107r5c6v2.8.jpg	 l	 2.201	 GoodTrial	 2.8	 bl
17	 3	 0	 x	 LineStimuli//2.8/stimNo130r0c0v2.8.jpg	 r	 3.286	 GoodTrial	 2.8	 bl
18	 3	 1	 left	 LineStimuli//2.8/stimNo86r15c6v2.8.jpg	 l	 2.880	 GoodTrial	 2.8	 bl
19	 3	 1	 left	 LineStimuli//2.8/stimNo104r8c6v2.8.jpg	 l	 2.142	 GoodTrial	 2.8	 bl
20	 3	 1	 left	 LineStimuli//2.8/stimNo113r9c5v2.8.jpg	 l	 2.216	 GoodTrial	 2.8	 bl
21	 3	 0	 x	 LineStimuli//2.8/stimNo131r0c0v2.8.jpg	 r	 3.024	 GoodTrial	 2.8	 bl
22	 3	 1	 right	 LineStimuli//2.8/stimNo117r11c17v2.8.jpg	 l	 2.593	 GoodTrial	 2.8	 bl
23	 3	 1	 left	 LineStimuli//2.8/stimNo87r11c8v2.8.jpg	 l	 2.939	 GoodTrial	 2.8	 bl
24	 3	 1	 right	 LineStimuli//2.8/stimNo103r3c19v2.8.jpg	 l	 2.566	 GoodTrial	 2.8	 bl
25	 3	 0	 x	 LineStimuli//2.8/stimNo123r0c0v2.8.jpg	 r	 2.793	 GoodTrial	 2.8	 bl
26	 3	 0	 x	 LineStimuli//2.8/stimNo140r0c0v2.8.jpg	 r	 2.822	 GoodTrial	 2.8	 bl
27	 3	 0	 x	 LineStimuli//2.8/stimNo134r0c0v2.8.jpg	 r	 5.159	 GoodTrial	 2.8	 bl
28	 3	 1	 left	 LineStimuli//2.8/stimNo94r13c7v2.8.jpg	 l	 2.514	 GoodTrial	 2.8	 bl
29	 3	 0	 x	 LineStimuli//2.8/stimNo129r0c0v2.8.jpg	 r	 5.920	 GoodTrial	 2.8	 bl
30	 3	 1	 left	 LineStimuli//2.8/stimNo83r12c4v2.8.jpg	 l	 6.432	 GoodTrial	 2.8	 bl
31	 3	 0	 x	 LineStimuli//2.8/stimNo136r0c0v2.8.jpg	 r	 5.713	 GoodTrial	 2.8	 bl
32	 3	 1	 left	 LineStimuli//2.8/stimNo108r13c6v2.8.jpg	 l	 2.264	 GoodTrial	 2.8	 bl
33	 3	 0	 x	 LineStimuli//2.8/stimNo121r0c0v2.8.jpg	 r	 5.721	 GoodTrial	 2.8	 bl
34	 3	 0	 x	 LineStimuli//2.8/stimNo155r0c0v2.8.jpg	 r	 5.936	 GoodTrial	 2.8	 bl
35	 3	 1	 right	 LineStimuli//2.8/stimNo90r13c21v2.8.jpg	 l	 2.394	 GoodTrial	 2.8	 bl
36	 3	 0	 x	 LineStimuli//2.8/stimNo156r0c0v2.8.jpg	 r	 8.938	 GoodTrial	 2.8	 bl
37	 3	 0	 x	 LineStimuli//2.8/stimNo122r0c0v2.8.jpg	 r	 2.945	 GoodTrial	 2.8	 bl
38	 3	 0	 x	 LineStimuli//2.8/stimNo141r0c0v2.8.jpg	 r	 3.261	 GoodTrial	 2.8	 bl
39	 3	 0	 x	 LineStimuli//2.8/stimNo145r0c0v2.8.jpg	 r	 3.757	 GoodTrial	 2.8	 bl
40	 3	 1	 left	 LineStimuli//2.8/stimNo97r11c4v2.8.jpg	 l	 2.630	 GoodTrial	 2.8	 bl
41	 3	 1	 left	 LineStimuli//2.8/stimNo119r8c5v2.8.jpg	 l	 2.265	 GoodTrial	 2.8	 bl
42	 3	 1	 right	 LineStimuli//2.8/stimNo100r8c13v2.8.jpg	 l	 2.223	 GoodTrial	 2.8	 bl
43	 3	 0	 x	 LineStimuli//2.8/stimNo152r0c0v2.8.jpg	 r	 3.833	 GoodTrial	 2.8	 bl
44	 3	 0	 x	 LineStimuli//2.8/stimNo124r0c0v2.8.jpg	 r	 5.316	 GoodTrial	 2.8	 bl
45	 3	 1	 left	 LineStimuli//2.8/stimNo89r12c4v2.8.jpg	 l	 2.225	 GoodTrial	 2.8	 bl
46	 3	 1	 right	 LineStimuli//2.8/stimNo115r9c14v2.8.jpg	 l	 2.251	 GoodTrial	 2.8	 bl
47	 3	 1	 right	 LineStimuli//2.8/stimNo101r12c16v2.8.jpg	 l	 2.082	 GoodTrial	 2.8	 bl
48	 3	 1	 right	 LineStimuli//2.8/stimNo118r5c16v2.8.jpg	 l	 2.156	 GoodTrial	 2.8	 bl
49	 3	 0	 x	 LineStimuli//2.8/stimNo144r0c0v2.8.jpg	 r	 3.720	 GoodTrial	 2.8	 bl
50	 3	 1	 left	 LineStimuli//2.8/stimNo116r4c7v2.8.jpg	 l	 2.263	 GoodTrial	 2.8	 bl
1	 4	 1	 right	 LineStimuli//1.8/stimNo111r4c21v1.8.jpg	 l	 5.993	 GoodTrial	 1.8	 bl
2	 4	 0	 x	 LineStimuli//1.8/stimNo136r0c0v1.8.jpg	 r	 12.423	 GoodTrial	 1.8	 bl
3	 4	 1	 left	 LineStimuli//1.8/stimNo110r4c7v1.8.jpg	 l	 3.064	 GoodTrial	 1.8	 bl
4	 4	 1	 left	 LineStimuli//1.8/stimNo96r13c2v1.8.jpg	 r	 4.714	 GoodTrial	 1.8	 bl
5	 4	 1	 right	 LineStimuli//1.8/stimNo118r11c15v1.8.jpg	 r	 5.488	 GoodTrial	 1.8	 bl
6	 4	 1	 left	 LineStimuli//1.8/stimNo89r11c6v1.8.jpg	 l	 3.764	 GoodTrial	 1.8	 bl
7	 4	 1	 left	 LineStimuli//1.8/stimNo95r4c9v1.8.jpg	 l	 2.591	 GoodTrial	 1.8	 bl
8	 4	 0	 x	 LineStimuli//1.8/stimNo123r0c0v1.8.jpg	 r	 7.804	 GoodTrial	 1.8	 bl
9	 4	 0	 x	 LineStimuli//1.8/stimNo122r0c0v1.8.jpg	 r	 10.742	 GoodTrial	 1.8	 bl
10	 4	 1	 left	 LineStimuli//1.8/stimNo103r15c10v1.8.jpg	 l	 3.204	 GoodTrial	 1.8	 bl
11	 4	 1	 right	 LineStimuli//1.8/stimNo93r3c17v1.8.jpg	 l	 8.177	 GoodTrial	 1.8	 bl
12	 4	 1	 left	 LineStimuli//1.8/stimNo87r14c2v1.8.jpg	 l	 7.212	 GoodTrial	 1.8	 bl
13	 4	 0	 x	 LineStimuli//1.8/stimNo156r0c0v1.8.jpg	 r	 10.392	 GoodTrial	 1.8	 bl
14	 4	 1	 left	 LineStimuli//1.8/stimNo115r5c9v1.8.jpg	 l	 2.288	 GoodTrial	 1.8	 bl
15	 4	 1	 right	 LineStimuli//1.8/stimNo100r9c13v1.8.jpg	 l	 2.369	 GoodTrial	 1.8	 bl
16	 4	 1	 left	 LineStimuli//1.8/stimNo120r14c9v1.8.jpg	 r	 7.685	 GoodTrial	 1.8	 bl
17	 4	 1	 right	 LineStimuli//1.8/stimNo101r4c13v1.8.jpg	 l	 3.611	 GoodTrial	 1.8	 bl
18	 4	 0	 x	 LineStimuli//1.8/stimNo153r0c0v1.8.jpg	 r	 7.988	 GoodTrial	 1.8	 bl
19	 4	 1	 right	 LineStimuli//1.8/stimNo114r8c13v1.8.jpg	 l	 2.267	 GoodTrial	 1.8	 bl
20	 4	 0	 x	 LineStimuli//1.8/stimNo150r0c0v1.8.jpg	 r	 6.751	 GoodTrial	 1.8	 bl
21	 4	 0	 x	 LineStimuli//1.8/stimNo134r0c0v1.8.jpg	 r	 8.737	 GoodTrial	 1.8	 bl
22	 4	 0	 x	 LineStimuli//1.8/stimNo132r0c0v1.8.jpg	 r	 8.151	 GoodTrial	 1.8	 bl
23	 4	 0	 x	 LineStimuli//1.8/stimNo128r0c0v1.8.jpg	 r	 9.764	 GoodTrial	 1.8	 bl
24	 4	 1	 left	 LineStimuli//1.8/stimNo116r4c7v1.8.jpg	 l	 4.735	 GoodTrial	 1.8	 bl
25	 4	 1	 right	 LineStimuli//1.8/stimNo108r9c21v1.8.jpg	 r	 16.109	 GoodTrial	 1.8	 bl
26	 4	 0	 x	 LineStimuli//1.8/stimNo138r0c0v1.8.jpg	 r	 11.760	 GoodTrial	 1.8	 bl
27	 4	 0	 x	 LineStimuli//1.8/stimNo146r0c0v1.8.jpg	 r	 11.234	 GoodTrial	 1.8	 bl
28	 4	 1	 left	 LineStimuli//1.8/stimNo91r14c4v1.8.jpg	 r	 7.213	 GoodTrial	 1.8	 bl
29	 4	 0	 x	 LineStimuli//1.8/stimNo121r0c0v1.8.jpg	 r	 9.943	 GoodTrial	 1.8	 bl
30	 4	 0	 x	 LineStimuli//1.8/stimNo159r0c0v1.8.jpg	 r	 24.073	 GoodTrial	 1.8	 bl
31	 4	 1	 right	 LineStimuli//1.8/stimNo92r10c18v1.8.jpg	 l	 3.957	 GoodTrial	 1.8	 bl
32	 4	 0	 x	 LineStimuli//1.8/stimNo126r0c0v1.8.jpg	 r	 6.504	 GoodTrial	 1.8	 bl
33	 4	 1	 right	 LineStimuli//1.8/stimNo104r3c21v1.8.jpg	 r	 6.365	 GoodTrial	 1.8	 bl
34	 4	 0	 x	 LineStimuli//1.8/stimNo139r0c0v1.8.jpg	 r	 12.556	 GoodTrial	 1.8	 bl
35	 4	 1	 right	 LineStimuli//1.8/stimNo117r10c16v1.8.jpg	 l	 3.909	 GoodTrial	 1.8	 bl
36	 4	 1	 left	 LineStimuli//1.8/stimNo86r14c4v1.8.jpg	 r	 6.361	 GoodTrial	 1.8	 bl
37	 4	 0	 x	 LineStimuli//1.8/stimNo131r0c0v1.8.jpg	 r	 5.809	 GoodTrial	 1.8	 bl
38	 4	 1	 right	 LineStimuli//1.8/stimNo82r7c18v1.8.jpg	 r	 7.839	 GoodTrial	 1.8	 bl
39	 4	 0	 x	 LineStimuli//1.8/stimNo133r0c0v1.8.jpg	 r	 12.851	 GoodTrial	 1.8	 bl
40	 4	 0	 x	 LineStimuli//1.8/stimNo157r0c0v1.8.jpg	 r	 10.064	 GoodTrial	 1.8	 bl
41	 4	 1	 right	 LineStimuli//1.8/stimNo119r3c21v1.8.jpg	 l	 3.040	 GoodTrial	 1.8	 bl
42	 4	 0	 x	 LineStimuli//1.8/stimNo142r0c0v1.8.jpg	 r	 5.003	 GoodTrial	 1.8	 bl
43	 4	 0	 x	 LineStimuli//1.8/stimNo140r0c0v1.8.jpg	 r	 14.944	 GoodTrial	 1.8	 bl
44	 4	 1	 left	 LineStimuli//1.8/stimNo106r13c9v1.8.jpg	 l	 3.585	 GoodTrial	 1.8	 bl
45	 4	 0	 x	 LineStimuli//1.8/stimNo147r0c0v1.8.jpg	 r	 8.430	 GoodTrial	 1.8	 bl
46	 4	 0	 x	 LineStimuli//1.8/stimNo135r0c0v1.8.jpg	 r	 7.289	 GoodTrial	 1.8	 bl
47	 4	 1	 right	 LineStimuli//1.8/stimNo112r6c15v1.8.jpg	 l	 3.000	 GoodTrial	 1.8	 bl
48	 4	 0	 x	 LineStimuli//1.8/stimNo148r0c0v1.8.jpg	 r	 6.580	 GoodTrial	 1.8	 bl
49	 4	 0	 x	 LineStimuli//1.8/stimNo154r0c0v1.8.jpg	 r	 28.360	 GoodTrial	 1.8	 bl
50	 4	 0	 x	 LineStimuli//1.8/stimNo141r0c0v1.8.jpg	 r	 10.913	 GoodTrial	 1.8	 bl
1	 5	 1	 left	 LineStimuli//4.3/stimNo95r11c9v4.3.jpg	 l	 2.708	 GoodTrial	 4.3	 bl
2	 5	 0	 x	 LineStimuli//4.3/stimNo150r0c0v4.3.jpg	 r	 2.648	 GoodTrial	 4.3	 bl
3	 5	 0	 x	 LineStimuli//4.3/stimNo154r0c0v4.3.jpg	 r	 2.756	 GoodTrial	 4.3	 bl
4	 5	 0	 x	 LineStimuli//4.3/stimNo143r0c0v4.3.jpg	 r	 4.368	 GoodTrial	 4.3	 bl
5	 5	 1	 right	 LineStimuli//4.3/stimNo118r11c13v4.3.jpg	 l	 2.415	 GoodTrial	 4.3	 bl
6	 5	 0	 x	 LineStimuli//4.3/stimNo133r0c0v4.3.jpg	 r	 2.552	 GoodTrial	 4.3	 bl
7	 5	 1	 right	 LineStimuli//4.3/stimNo97r6c21v4.3.jpg	 l	 2.263	 GoodTrial	 4.3	 bl
8	 5	 0	 x	 LineStimuli//4.3/stimNo152r0c0v4.3.jpg	 r	 2.394	 GoodTrial	 4.3	 bl
9	 5	 0	 x	 LineStimuli//4.3/stimNo151r0c0v4.3.jpg	 r	 2.746	 GoodTrial	 4.3	 bl
10	 5	 0	 x	 LineStimuli//4.3/stimNo159r0c0v4.3.jpg	 r	 3.124	 GoodTrial	 4.3	 bl
11	 5	 1	 right	 LineStimuli//4.3/stimNo120r8c18v4.3.jpg	 l	 2.257	 GoodTrial	 4.3	 bl
12	 5	 1	 right	 LineStimuli//4.3/stimNo102r10c19v4.3.jpg	 l	 2.289	 GoodTrial	 4.3	 bl
13	 5	 1	 left	 LineStimuli//4.3/stimNo98r3c8v4.3.jpg	 l	 2.350	 GoodTrial	 4.3	 bl
14	 5	 0	 x	 LineStimuli//4.3/stimNo142r0c0v4.3.jpg	 r	 2.966	 GoodTrial	 4.3	 bl
15	 5	 0	 x	 LineStimuli//4.3/stimNo155r0c0v4.3.jpg	 r	 2.755	 GoodTrial	 4.3	 bl
16	 5	 1	 left	 LineStimuli//4.3/stimNo107r2c8v4.3.jpg	 l	 2.103	 GoodTrial	 4.3	 bl
17	 5	 0	 x	 LineStimuli//4.3/stimNo135r0c0v4.3.jpg	 r	 2.416	 GoodTrial	 4.3	 bl
18	 5	 1	 left	 LineStimuli//4.3/stimNo113r11c7v4.3.jpg	 l	 2.151	 GoodTrial	 4.3	 bl
19	 5	 0	 x	 LineStimuli//4.3/stimNo156r0c0v4.3.jpg	 r	 2.320	 GoodTrial	 4.3	 bl
20	 5	 1	 left	 LineStimuli//4.3/stimNo85r3c5v4.3.jpg	 l	 2.223	 GoodTrial	 4.3	 bl
21	 5	 0	 x	 LineStimuli//4.3/stimNo157r0c0v4.3.jpg	 r	 2.445	 GoodTrial	 4.3	 bl
22	 5	 0	 x	 LineStimuli//4.3/stimNo127r0c0v4.3.jpg	 r	 4.772	 GoodTrial	 4.3	 bl
23	 5	 1	 left	 LineStimuli//4.3/stimNo105r14c6v4.3.jpg	 l	 4.129	 GoodTrial	 4.3	 bl
24	 5	 1	 right	 LineStimuli//4.3/stimNo96r4c19v4.3.jpg	 l	 3.466	 GoodTrial	 4.3	 bl
25	 5	 0	 x	 LineStimuli//4.3/stimNo158r0c0v4.3.jpg	 r	 2.608	 GoodTrial	 4.3	 bl
26	 5	 1	 right	 LineStimuli//4.3/stimNo84r15c20v4.3.jpg	 l	 2.288	 GoodTrial	 4.3	 bl
27	 5	 1	 left	 LineStimuli//4.3/stimNo103r10c4v4.3.jpg	 l	 2.135	 GoodTrial	 4.3	 bl
28	 5	 1	 left	 LineStimuli//4.3/stimNo100r8c3v4.3.jpg	 l	 2.037	 GoodTrial	 4.3	 bl
29	 5	 1	 left	 LineStimuli//4.3/stimNo108r5c8v4.3.jpg	 l	 2.113	 GoodTrial	 4.3	 bl
30	 5	 1	 left	 LineStimuli//4.3/stimNo93r9c9v4.3.jpg	 l	 2.127	 GoodTrial	 4.3	 bl
31	 5	 0	 x	 LineStimuli//4.3/stimNo129r0c0v4.3.jpg	 r	 4.846	 GoodTrial	 4.3	 bl
32	 5	 1	 left	 LineStimuli//4.3/stimNo101r5c5v4.3.jpg	 l	 2.084	 GoodTrial	 4.3	 bl
33	 5	 1	 right	 LineStimuli//4.3/stimNo81r10c14v4.3.jpg	 l	 2.044	 GoodTrial	 4.3	 bl
34	 5	 1	 left	 LineStimuli//4.3/stimNo106r8c2v4.3.jpg	 l	 2.071	 GoodTrial	 4.3	 bl
35	 5	 0	 x	 LineStimuli//4.3/stimNo131r0c0v4.3.jpg	 r	 2.720	 GoodTrial	 4.3	 bl
36	 5	 0	 x	 LineStimuli//4.3/stimNo136r0c0v4.3.jpg	 r	 3.209	 GoodTrial	 4.3	 bl
37	 5	 1	 right	 LineStimuli//4.3/stimNo117r10c21v4.3.jpg	 l	 2.252	 GoodTrial	 4.3	 bl
38	 5	 1	 left	 LineStimuli//4.3/stimNo104r15c2v4.3.jpg	 l	 2.402	 GoodTrial	 4.3	 bl
39	 5	 1	 right	 LineStimuli//4.3/stimNo116r5c13v4.3.jpg	 l	 2.183	 GoodTrial	 4.3	 bl
40	 5	 1	 right	 LineStimuli//4.3/stimNo112r10c16v4.3.jpg	 l	 2.070	 GoodTrial	 4.3	 bl
41	 5	 0	 x	 LineStimuli//4.3/stimNo144r0c0v4.3.jpg	 r	 4.220	 GoodTrial	 4.3	 bl
42	 5	 1	 right	 LineStimuli//4.3/stimNo109r15c15v4.3.jpg	 l	 2.168	 GoodTrial	 4.3	 bl
43	 5	 1	 left	 LineStimuli//4.3/stimNo86r7c3v4.3.jpg	 l	 3.055	 GoodTrial	 4.3	 bl
44	 5	 1	 left	 LineStimuli//4.3/stimNo90r10c4v4.3.jpg	 l	 2.297	 GoodTrial	 4.3	 bl
45	 5	 0	 x	 LineStimuli//4.3/stimNo141r0c0v4.3.jpg	 r	 3.399	 GoodTrial	 4.3	 bl
46	 5	 1	 right	 LineStimuli//4.3/stimNo99r14c18v4.3.jpg	 l	 2.263	 GoodTrial	 4.3	 bl
47	 5	 1	 left	 LineStimuli//4.3/stimNo87r3c5v4.3.jpg	 l	 2.215	 GoodTrial	 4.3	 bl
48	 5	 0	 x	 LineStimuli//4.3/stimNo126r0c0v4.3.jpg	 r	 2.814	 GoodTrial	 4.3	 bl
49	 5	 1	 right	 LineStimuli//4.3/stimNo92r2c20v4.3.jpg	 l	 2.561	 GoodTrial	 4.3	 bl
50	 5	 0	 x	 LineStimuli//4.3/stimNo125r0c0v4.3.jpg	 r	 2.714	 GoodTrial	 4.3	 bl
1	 6	 0	 x	 LineStimuli//2.3/stimNo150r0c0v2.3.jpg	 r	 9.991	 GoodTrial	 2.3	 bl
2	 6	 1	 left	 LineStimuli//2.3/stimNo100r8c6v2.3.jpg	 l	 2.291	 GoodTrial	 2.3	 bl
3	 6	 0	 x	 LineStimuli//2.3/stimNo151r0c0v2.3.jpg	 r	 4.640	 GoodTrial	 2.3	 bl
4	 6	 0	 x	 LineStimuli//2.3/stimNo131r0c0v2.3.jpg	 r	 15.200	 GoodTrial	 2.3	 bl
5	 6	 1	 right	 LineStimuli//2.3/stimNo89r8c21v2.3.jpg	 r	 11.199	 GoodTrial	 2.3	 bl
6	 6	 1	 right	 LineStimuli//2.3/stimNo118r4c17v2.3.jpg	 l	 2.672	 GoodTrial	 2.3	 bl
7	 6	 0	 x	 LineStimuli//2.3/stimNo148r0c0v2.3.jpg	 r	 4.425	 GoodTrial	 2.3	 bl
8	 6	 1	 right	 LineStimuli//2.3/stimNo105r14c14v2.3.jpg	 l	 2.363	 GoodTrial	 2.3	 bl
9	 6	 1	 right	 LineStimuli//2.3/stimNo102r6c18v2.3.jpg	 l	 2.222	 GoodTrial	 2.3	 bl
10	 6	 0	 x	 LineStimuli//2.3/stimNo134r0c0v2.3.jpg	 r	 3.492	 GoodTrial	 2.3	 bl
11	 6	 0	 x	 LineStimuli//2.3/stimNo154r0c0v2.3.jpg	 r	 7.182	 GoodTrial	 2.3	 bl
12	 6	 1	 left	 LineStimuli//2.3/stimNo96r3c3v2.3.jpg	 l	 2.231	 GoodTrial	 2.3	 bl
13	 6	 0	 x	 LineStimuli//2.3/stimNo153r0c0v2.3.jpg	 r	 7.584	 GoodTrial	 2.3	 bl
14	 6	 0	 x	 LineStimuli//2.3/stimNo159r0c0v2.3.jpg	 r	 9.416	 GoodTrial	 2.3	 bl
15	 6	 1	 left	 LineStimuli//2.3/stimNo108r15c6v2.3.jpg	 l	 2.482	 GoodTrial	 2.3	 bl
16	 6	 0	 x	 LineStimuli//2.3/stimNo149r0c0v2.3.jpg	 r	 9.824	 GoodTrial	 2.3	 bl
17	 6	 0	 x	 LineStimuli//2.3/stimNo156r0c0v2.3.jpg	 r	 8.872	 GoodTrial	 2.3	 bl
18	 6	 1	 right	 LineStimuli//2.3/stimNo109r2c17v2.3.jpg	 l	 2.511	 GoodTrial	 2.3	 bl
19	 6	 1	 left	 LineStimuli//2.3/stimNo95r13c9v2.3.jpg	 l	 2.477	 GoodTrial	 2.3	 bl
20	 6	 1	 right	 LineStimuli//2.3/stimNo91r11c20v2.3.jpg	 l	 2.167	 GoodTrial	 2.3	 bl
21	 6	 1	 right	 LineStimuli//2.3/stimNo98r12c21v2.3.jpg	 l	 2.210	 GoodTrial	 2.3	 bl
22	 6	 0	 x	 LineStimuli//2.3/stimNo121r0c0v2.3.jpg	 r	 4.119	 GoodTrial	 2.3	 bl
23	 6	 1	 left	 LineStimuli//2.3/stimNo81r4c3v2.3.jpg	 l	 2.083	 GoodTrial	 2.3	 bl
24	 6	 1	 left	 LineStimuli//2.3/stimNo86r8c9v2.3.jpg	 l	 2.196	 GoodTrial	 2.3	 bl
25	 6	 0	 x	 LineStimuli//2.3/stimNo135r0c0v2.3.jpg	 r	 4.578	 GoodTrial	 2.3	 bl
26	 6	 1	 right	 LineStimuli//2.3/stimNo110r15c19v2.3.jpg	 l	 3.000	 GoodTrial	 2.3	 bl
27	 6	 1	 right	 LineStimuli//2.3/stimNo107r11c15v2.3.jpg	 l	 2.230	 GoodTrial	 2.3	 bl
28	 6	 0	 x	 LineStimuli//2.3/stimNo122r0c0v2.3.jpg	 r	 3.732	 GoodTrial	 2.3	 bl
29	 6	 0	 x	 LineStimuli//2.3/stimNo160r0c0v2.3.jpg	 r	 5.389	 GoodTrial	 2.3	 bl
30	 6	 0	 x	 LineStimuli//2.3/stimNo125r0c0v2.3.jpg	 r	 4.896	 GoodTrial	 2.3	 bl
31	 6	 1	 right	 LineStimuli//2.3/stimNo99r2c13v2.3.jpg	 l	 5.925	 GoodTrial	 2.3	 bl
32	 6	 0	 x	 LineStimuli//2.3/stimNo143r0c0v2.3.jpg	 r	 4.288	 GoodTrial	 2.3	 bl
33	 6	 1	 right	 LineStimuli//2.3/stimNo103r11c21v2.3.jpg	 l	 2.313	 GoodTrial	 2.3	 bl
34	 6	 0	 x	 LineStimuli//2.3/stimNo133r0c0v2.3.jpg	 r	 3.866	 GoodTrial	 2.3	 bl
35	 6	 1	 right	 LineStimuli//2.3/stimNo101r8c14v2.3.jpg	 l	 3.148	 GoodTrial	 2.3	 bl
36	 6	 1	 left	 LineStimuli//2.3/stimNo117r11c8v2.3.jpg	 l	 2.902	 GoodTrial	 2.3	 bl
37	 6	 0	 x	 LineStimuli//2.3/stimNo124r0c0v2.3.jpg	 r	 8.510	 GoodTrial	 2.3	 bl
38	 6	 0	 x	 LineStimuli//2.3/stimNo152r0c0v2.3.jpg	 r	 7.631	 GoodTrial	 2.3	 bl
39	 6	 0	 x	 LineStimuli//2.3/stimNo126r0c0v2.3.jpg	 r	 5.814	 GoodTrial	 2.3	 bl
40	 6	 1	 left	 LineStimuli//2.3/stimNo115r7c3v2.3.jpg	 l	 2.184	 GoodTrial	 2.3	 bl
41	 6	 1	 right	 LineStimuli//2.3/stimNo87r13c19v2.3.jpg	 l	 2.288	 GoodTrial	 2.3	 bl
42	 6	 0	 x	 LineStimuli//2.3/stimNo157r0c0v2.3.jpg	 r	 3.538	 GoodTrial	 2.3	 bl
43	 6	 1	 left	 LineStimuli//2.3/stimNo104r2c4v2.3.jpg	 l	 2.110	 GoodTrial	 2.3	 bl
44	 6	 1	 left	 LineStimuli//2.3/stimNo114r7c8v2.3.jpg	 l	 2.840	 GoodTrial	 2.3	 bl
45	 6	 1	 left	 LineStimuli//2.3/stimNo113r3c8v2.3.jpg	 l	 2.092	 GoodTrial	 2.3	 bl
46	 6	 1	 left	 LineStimuli//2.3/stimNo94r8c9v2.3.jpg	 r	 3.664	 GoodTrial	 2.3	 bl
47	 6	 1	 left	 LineStimuli//2.3/stimNo83r14c4v2.3.jpg	 l	 2.688	 GoodTrial	 2.3	 bl
48	 6	 0	 x	 LineStimuli//2.3/stimNo146r0c0v2.3.jpg	 r	 3.464	 GoodTrial	 2.3	 bl
49	 6	 0	 x	 LineStimuli//2.3/stimNo140r0c0v2.3.jpg	 r	 9.748	 GoodTrial	 2.3	 bl
50	 6	 0	 x	 LineStimuli//2.3/stimNo155r0c0v2.3.jpg	 r	 4.263	 GoodTrial	 2.3	 bl
1	 7	 1	 right	 LineStimuli//3.8/stimNo114r10c14v3.8.jpg	 l	 2.393	 GoodTrial	 3.8	 bl
2	 7	 1	 left	 LineStimuli//3.8/stimNo104r12c8v3.8.jpg	 l	 2.106	 GoodTrial	 3.8	 bl
3	 7	 1	 right	 LineStimuli//3.8/stimNo87r6c13v3.8.jpg	 l	 2.175	 GoodTrial	 3.8	 bl
4	 7	 1	 left	 LineStimuli//3.8/stimNo109r11c8v3.8.jpg	 l	 3.110	 GoodTrial	 3.8	 bl
5	 7	 1	 right	 LineStimuli//3.8/stimNo102r10c17v3.8.jpg	 l	 2.015	 GoodTrial	 3.8	 bl
6	 7	 0	 x	 LineStimuli//3.8/stimNo137r0c0v3.8.jpg	 r	 2.960	 GoodTrial	 3.8	 bl
7	 7	 1	 right	 LineStimuli//3.8/stimNo96r2c13v3.8.jpg	 l	 2.568	 GoodTrial	 3.8	 bl
8	 7	 1	 left	 LineStimuli//3.8/stimNo120r5c3v3.8.jpg	 l	 2.005	 GoodTrial	 3.8	 bl
9	 7	 0	 x	 LineStimuli//3.8/stimNo136r0c0v3.8.jpg	 r	 2.711	 GoodTrial	 3.8	 bl
10	 7	 1	 left	 LineStimuli//3.8/stimNo118r4c8v3.8.jpg	 l	 2.205	 GoodTrial	 3.8	 bl
11	 7	 1	 right	 LineStimuli//3.8/stimNo88r10c17v3.8.jpg	 l	 2.065	 GoodTrial	 3.8	 bl
12	 7	 0	 x	 LineStimuli//3.8/stimNo141r0c0v3.8.jpg	 r	 2.388	 GoodTrial	 3.8	 bl
13	 7	 0	 x	 LineStimuli//3.8/stimNo121r0c0v3.8.jpg	 r	 4.485	 GoodTrial	 3.8	 bl
14	 7	 1	 left	 LineStimuli//3.8/stimNo103r11c7v3.8.jpg	 l	 2.033	 GoodTrial	 3.8	 bl
15	 7	 0	 x	 LineStimuli//3.8/stimNo154r0c0v3.8.jpg	 r	 2.438	 GoodTrial	 3.8	 bl
16	 7	 0	 x	 LineStimuli//3.8/stimNo160r0c0v3.8.jpg	 r	 2.495	 GoodTrial	 3.8	 bl
17	 7	 1	 right	 LineStimuli//3.8/stimNo91r10c16v3.8.jpg	 l	 2.114	 GoodTrial	 3.8	 bl
18	 7	 1	 left	 LineStimuli//3.8/stimNo83r9c9v3.8.jpg	 l	 2.407	 GoodTrial	 3.8	 bl
19	 7	 1	 left	 LineStimuli//3.8/stimNo97r15c9v3.8.jpg	 l	 2.365	 GoodTrial	 3.8	 bl
20	 7	 0	 x	 LineStimuli//3.8/stimNo127r0c0v3.8.jpg	 r	 2.570	 GoodTrial	 3.8	 bl
21	 7	 0	 x	 LineStimuli//3.8/stimNo124r0c0v3.8.jpg	 r	 4.056	 GoodTrial	 3.8	 bl
22	 7	 0	 x	 LineStimuli//3.8/stimNo128r0c0v3.8.jpg	 r	 2.584	 GoodTrial	 3.8	 bl
23	 7	 0	 x	 LineStimuli//3.8/stimNo151r0c0v3.8.jpg	 r	 3.245	 GoodTrial	 3.8	 bl
24	 7	 1	 left	 LineStimuli//3.8/stimNo89r10c7v3.8.jpg	 l	 2.508	 GoodTrial	 3.8	 bl
25	 7	 1	 left	 LineStimuli//3.8/stimNo105r2c6v3.8.jpg	 l	 2.391	 GoodTrial	 3.8	 bl
26	 7	 1	 left	 LineStimuli//3.8/stimNo98r2c9v3.8.jpg	 l	 4.297	 GoodTrial	 3.8	 bl
27	 7	 0	 x	 LineStimuli//3.8/stimNo142r0c0v3.8.jpg	 r	 2.441	 GoodTrial	 3.8	 bl
28	 7	 0	 x	 LineStimuli//3.8/stimNo156r0c0v3.8.jpg	 r	 3.512	 GoodTrial	 3.8	 bl
29	 7	 1	 right	 LineStimuli//3.8/stimNo94r6c17v3.8.jpg	 l	 2.231	 GoodTrial	 3.8	 bl
30	 7	 0	 x	 LineStimuli//3.8/stimNo139r0c0v3.8.jpg	 r	 2.604	 GoodTrial	 3.8	 bl
31	 7	 1	 right	 LineStimuli//3.8/stimNo99r2c13v3.8.jpg	 l	 4.538	 GoodTrial	 3.8	 bl
32	 7	 1	 right	 LineStimuli//3.8/stimNo95r5c21v3.8.jpg	 l	 2.304	 GoodTrial	 3.8	 bl
33	 7	 0	 x	 LineStimuli//3.8/stimNo129r0c0v3.8.jpg	 r	 2.965	 GoodTrial	 3.8	 bl
34	 7	 0	 x	 LineStimuli//3.8/stimNo150r0c0v3.8.jpg	 r	 2.542	 GoodTrial	 3.8	 bl
35	 7	 1	 right	 LineStimuli//3.8/stimNo117r6c17v3.8.jpg	 l	 2.111	 GoodTrial	 3.8	 bl
36	 7	 1	 left	 LineStimuli//3.8/stimNo113r14c9v3.8.jpg	 l	 2.205	 GoodTrial	 3.8	 bl
37	 7	 1	 left	 LineStimuli//3.8/stimNo93r8c2v3.8.jpg	 l	 2.203	 GoodTrial	 3.8	 bl
38	 7	 1	 left	 LineStimuli//3.8/stimNo100r13c6v3.8.jpg	 l	 2.234	 GoodTrial	 3.8	 bl
39	 7	 0	 x	 LineStimuli//3.8/stimNo155r0c0v3.8.jpg	 r	 2.328	 GoodTrial	 3.8	 bl
40	 7	 1	 left	 LineStimuli//3.8/stimNo108r3c6v3.8.jpg	 l	 2.255	 GoodTrial	 3.8	 bl
41	 7	 1	 right	 LineStimuli//3.8/stimNo90r8c17v3.8.jpg	 l	 2.097	 GoodTrial	 3.8	 bl
42	 7	 1	 left	 LineStimuli//3.8/stimNo106r9c9v3.8.jpg	 l	 2.269	 GoodTrial	 3.8	 bl
43	 7	 1	 right	 LineStimuli//3.8/stimNo92r6c21v3.8.jpg	 l	 2.144	 GoodTrial	 3.8	 bl
44	 7	 1	 left	 LineStimuli//3.8/stimNo119r9c8v3.8.jpg	 l	 2.322	 GoodTrial	 3.8	 bl
45	 7	 0	 x	 LineStimuli//3.8/stimNo147r0c0v3.8.jpg	 r	 4.605	 GoodTrial	 3.8	 bl
46	 7	 1	 left	 LineStimuli//3.8/stimNo86r7c7v3.8.jpg	 l	 2.212	 GoodTrial	 3.8	 bl
47	 7	 1	 left	 LineStimuli//3.8/stimNo115r14c10v3.8.jpg	 l	 2.564	 GoodTrial	 3.8	 bl
48	 7	 1	 right	 LineStimuli//3.8/stimNo81r3c21v3.8.jpg	 l	 2.241	 GoodTrial	 3.8	 bl
49	 7	 1	 right	 LineStimuli//3.8/stimNo84r9c19v3.8.jpg	 l	 2.975	 GoodTrial	 3.8	 bl
50	 7	 0	 x	 LineStimuli//3.8/stimNo138r0c0v3.8.jpg	 r	 4.279	 GoodTrial	 3.8	 bl
