Trial	Block	Target_pr	Target_side	Name	Key	RT	Message	Block_Type	Condition
1	 1	 0	 x	 LineStimuli//3.3/stimNo124r0c0v3.3.jpg	 r	 6.608	 GoodTrial	 3.3	 bl
2	 1	 1	 right	 LineStimuli//3.3/stimNo112r5c15v3.3.jpg	 l	 2.298	 GoodTrial	 3.3	 bl
3	 1	 1	 right	 LineStimuli//3.3/stimNo101r7c16v3.3.jpg	 l	 2.038	 GoodTrial	 3.3	 bl
4	 1	 1	 left	 LineStimuli//3.3/stimNo115r3c4v3.3.jpg	 l	 1.993	 GoodTrial	 3.3	 bl
5	 1	 0	 x	 LineStimuli//3.3/stimNo152r0c0v3.3.jpg	 r	 3.986	 GoodTrial	 3.3	 bl
6	 1	 1	 left	 LineStimuli//3.3/stimNo86r5c7v3.3.jpg	 l	 2.160	 GoodTrial	 3.3	 bl
7	 1	 0	 x	 LineStimuli//3.3/stimNo145r0c0v3.3.jpg	 r	 3.385	 GoodTrial	 3.3	 bl
8	 1	 1	 left	 LineStimuli//3.3/stimNo83r8c3v3.3.jpg	 x	 0.184	 EARLY_RESPONSE	 3.3	 bl
9	 1	 1	 right	 LineStimuli//3.3/stimNo97r6c13v3.3.jpg	 l	 1.905	 GoodTrial	 3.3	 bl
10	 1	 1	 right	 LineStimuli//3.3/stimNo105r7c20v3.3.jpg	 l	 2.038	 GoodTrial	 3.3	 bl
11	 1	 1	 left	 LineStimuli//3.3/stimNo81r15c8v3.3.jpg	 l	 2.724	 GoodTrial	 3.3	 bl
12	 1	 1	 right	 LineStimuli//3.3/stimNo107r2c17v3.3.jpg	 l	 1.618	 GoodTrial	 3.3	 bl
13	 1	 1	 right	 LineStimuli//3.3/stimNo84r6c16v3.3.jpg	 l	 1.849	 GoodTrial	 3.3	 bl
14	 1	 0	 x	 LineStimuli//3.3/stimNo155r0c0v3.3.jpg	 r	 3.067	 GoodTrial	 3.3	 bl
15	 1	 0	 x	 LineStimuli//3.3/stimNo160r0c0v3.3.jpg	 r	 3.896	 GoodTrial	 3.3	 bl
16	 1	 0	 x	 LineStimuli//3.3/stimNo132r0c0v3.3.jpg	 x	 0.184	 EARLY_RESPONSE	 3.3	 bl
17	 1	 1	 left	 LineStimuli//3.3/stimNo94r14c9v3.3.jpg	 l	 1.953	 GoodTrial	 3.3	 bl
18	 1	 1	 left	 LineStimuli//3.3/stimNo108r13c2v3.3.jpg	 l	 1.833	 GoodTrial	 3.3	 bl
19	 1	 0	 x	 LineStimuli//3.3/stimNo122r0c0v3.3.jpg	 r	 3.347	 GoodTrial	 3.3	 bl
20	 1	 0	 x	 LineStimuli//3.3/stimNo123r0c0v3.3.jpg	 r	 2.485	 GoodTrial	 3.3	 bl
21	 1	 1	 right	 LineStimuli//3.3/stimNo99r6c17v3.3.jpg	 l	 1.874	 GoodTrial	 3.3	 bl
22	 1	 0	 x	 LineStimuli//3.3/stimNo142r0c0v3.3.jpg	 r	 3.008	 GoodTrial	 3.3	 bl
23	 1	 1	 left	 LineStimuli//3.3/stimNo93r3c5v3.3.jpg	 l	 2.305	 GoodTrial	 3.3	 bl
24	 1	 1	 right	 LineStimuli//3.3/stimNo120r8c14v3.3.jpg	 l	 2.164	 GoodTrial	 3.3	 bl
25	 1	 0	 x	 LineStimuli//3.3/stimNo136r0c0v3.3.jpg	 r	 2.191	 GoodTrial	 3.3	 bl
26	 1	 1	 left	 LineStimuli//3.3/stimNo117r2c5v3.3.jpg	 l	 1.896	 GoodTrial	 3.3	 bl
27	 1	 0	 x	 LineStimuli//3.3/stimNo134r0c0v3.3.jpg	 r	 2.043	 GoodTrial	 3.3	 bl
28	 1	 0	 x	 LineStimuli//3.3/stimNo141r0c0v3.3.jpg	 r	 2.667	 GoodTrial	 3.3	 bl
29	 1	 1	 right	 LineStimuli//3.3/stimNo118r3c16v3.3.jpg	 l	 1.868	 GoodTrial	 3.3	 bl
30	 1	 0	 x	 LineStimuli//3.3/stimNo149r0c0v3.3.jpg	 r	 1.995	 GoodTrial	 3.3	 bl
31	 1	 1	 right	 LineStimuli//3.3/stimNo89r5c21v3.3.jpg	 l	 1.820	 GoodTrial	 3.3	 bl
32	 1	 1	 left	 LineStimuli//3.3/stimNo95r15c8v3.3.jpg	 l	 1.836	 GoodTrial	 3.3	 bl
33	 1	 0	 x	 LineStimuli//3.3/stimNo158r0c0v3.3.jpg	 r	 2.226	 GoodTrial	 3.3	 bl
34	 1	 1	 left	 LineStimuli//3.3/stimNo119r15c7v3.3.jpg	 l	 2.018	 GoodTrial	 3.3	 bl
35	 1	 0	 x	 LineStimuli//3.3/stimNo159r0c0v3.3.jpg	 r	 2.423	 GoodTrial	 3.3	 bl
36	 1	 1	 right	 LineStimuli//3.3/stimNo87r15c13v3.3.jpg	 l	 1.857	 GoodTrial	 3.3	 bl
37	 1	 0	 x	 LineStimuli//3.3/stimNo121r0c0v3.3.jpg	 r	 2.123	 GoodTrial	 3.3	 bl
38	 1	 0	 x	 LineStimuli//3.3/stimNo156r0c0v3.3.jpg	 r	 2.104	 GoodTrial	 3.3	 bl
39	 1	 1	 left	 LineStimuli//3.3/stimNo103r6c6v3.3.jpg	 l	 1.684	 GoodTrial	 3.3	 bl
40	 1	 0	 x	 LineStimuli//3.3/stimNo127r0c0v3.3.jpg	 r	 2.331	 GoodTrial	 3.3	 bl
41	 1	 0	 x	 LineStimuli//3.3/stimNo135r0c0v3.3.jpg	 r	 2.129	 GoodTrial	 3.3	 bl
42	 1	 1	 right	 LineStimuli//3.3/stimNo102r13c13v3.3.jpg	 l	 2.006	 GoodTrial	 3.3	 bl
43	 1	 0	 x	 LineStimuli//3.3/stimNo146r0c0v3.3.jpg	 r	 1.797	 GoodTrial	 3.3	 bl
44	 1	 0	 x	 LineStimuli//3.3/stimNo139r0c0v3.3.jpg	 r	 2.461	 GoodTrial	 3.3	 bl
45	 1	 1	 left	 LineStimuli//3.3/stimNo90r2c9v3.3.jpg	 x	 0.137	 EARLY_RESPONSE	 3.3	 bl
46	 1	 0	 x	 LineStimuli//3.3/stimNo129r0c0v3.3.jpg	 r	 1.983	 GoodTrial	 3.3	 bl
47	 1	 1	 left	 LineStimuli//3.3/stimNo111r15c7v3.3.jpg	 x	 0.392	 EARLY_RESPONSE	 3.3	 bl
48	 1	 1	 left	 LineStimuli//3.3/stimNo106r9c9v3.3.jpg	 l	 1.951	 GoodTrial	 3.3	 bl
49	 1	 0	 x	 LineStimuli//3.3/stimNo150r0c0v3.3.jpg	 x	 0.208	 EARLY_RESPONSE	 3.3	 bl
50	 1	 0	 x	 LineStimuli//3.3/stimNo143r0c0v3.3.jpg	 r	 1.968	 GoodTrial	 3.3	 bl
1	 2	 0	 x	 LineStimuli//3.8/stimNo160r0c0v3.8.jpg	 r	 2.615	 GoodTrial	 3.8	 bl
2	 2	 0	 x	 LineStimuli//3.8/stimNo135r0c0v3.8.jpg	 r	 2.014	 GoodTrial	 3.8	 bl
3	 2	 1	 right	 LineStimuli//3.8/stimNo90r8c17v3.8.jpg	 l	 1.976	 GoodTrial	 3.8	 bl
4	 2	 0	 x	 LineStimuli//3.8/stimNo149r0c0v3.8.jpg	 r	 1.795	 GoodTrial	 3.8	 bl
5	 2	 0	 x	 LineStimuli//3.8/stimNo151r0c0v3.8.jpg	 r	 1.921	 GoodTrial	 3.8	 bl
6	 2	 0	 x	 LineStimuli//3.8/stimNo129r0c0v3.8.jpg	 r	 2.039	 GoodTrial	 3.8	 bl
7	 2	 0	 x	 LineStimuli//3.8/stimNo122r0c0v3.8.jpg	 x	 0.088	 EARLY_RESPONSE	 3.8	 bl
8	 2	 1	 right	 LineStimuli//3.8/stimNo81r3c21v3.8.jpg	 l	 2.227	 GoodTrial	 3.8	 bl
9	 2	 0	 x	 LineStimuli//3.8/stimNo137r0c0v3.8.jpg	 r	 1.915	 GoodTrial	 3.8	 bl
10	 2	 1	 right	 LineStimuli//3.8/stimNo111r15c20v3.8.jpg	 l	 2.076	 GoodTrial	 3.8	 bl
11	 2	 1	 right	 LineStimuli//3.8/stimNo107r9c18v3.8.jpg	 x	 0.432	 EARLY_RESPONSE	 3.8	 bl
12	 2	 1	 left	 LineStimuli//3.8/stimNo120r5c3v3.8.jpg	 l	 2.278	 GoodTrial	 3.8	 bl
13	 2	 0	 x	 LineStimuli//3.8/stimNo145r0c0v3.8.jpg	 r	 2.207	 GoodTrial	 3.8	 bl
14	 2	 0	 x	 LineStimuli//3.8/stimNo141r0c0v3.8.jpg	 r	 1.847	 GoodTrial	 3.8	 bl
15	 2	 1	 left	 LineStimuli//3.8/stimNo119r9c8v3.8.jpg	 l	 1.761	 GoodTrial	 3.8	 bl
16	 2	 0	 x	 LineStimuli//3.8/stimNo124r0c0v3.8.jpg	 r	 1.727	 GoodTrial	 3.8	 bl
17	 2	 1	 left	 LineStimuli//3.8/stimNo100r13c6v3.8.jpg	 x	 0.121	 EARLY_RESPONSE	 3.8	 bl
18	 2	 0	 x	 LineStimuli//3.8/stimNo140r0c0v3.8.jpg	 r	 3.180	 GoodTrial	 3.8	 bl
19	 2	 1	 right	 LineStimuli//3.8/stimNo84r9c19v3.8.jpg	 x	 0.201	 EARLY_RESPONSE	 3.8	 bl
20	 2	 1	 right	 LineStimuli//3.8/stimNo102r10c17v3.8.jpg	 x	 1.176	 GoodTrial	 3.8	 bl
21	 2	 0	 x	 LineStimuli//3.8/stimNo155r0c0v3.8.jpg	 r	 2.727	 GoodTrial	 3.8	 bl
22	 2	 1	 left	 LineStimuli//3.8/stimNo110r7c9v3.8.jpg	 x	 0.175	 EARLY_RESPONSE	 3.8	 bl
23	 2	 1	 right	 LineStimuli//3.8/stimNo87r6c13v3.8.jpg	 l	 1.910	 GoodTrial	 3.8	 bl
24	 2	 1	 right	 LineStimuli//3.8/stimNo112r12c16v3.8.jpg	 l	 2.016	 GoodTrial	 3.8	 bl
25	 2	 0	 x	 LineStimuli//3.8/stimNo148r0c0v3.8.jpg	 r	 3.486	 GoodTrial	 3.8	 bl
26	 2	 1	 left	 LineStimuli//3.8/stimNo83r9c9v3.8.jpg	 x	 0.184	 EARLY_RESPONSE	 3.8	 bl
27	 2	 1	 right	 LineStimuli//3.8/stimNo85r3c13v3.8.jpg	 r	 2.363	 GoodTrial	 3.8	 bl
28	 2	 0	 x	 LineStimuli//3.8/stimNo133r0c0v3.8.jpg	 x	 0.760	 EARLY_RESPONSE	 3.8	 bl
29	 2	 1	 right	 LineStimuli//3.8/stimNo96r2c13v3.8.jpg	 l	 1.804	 GoodTrial	 3.8	 bl
30	 2	 1	 left	 LineStimuli//3.8/stimNo118r4c8v3.8.jpg	 x	 0.528	 EARLY_RESPONSE	 3.8	 bl
31	 2	 1	 right	 LineStimuli//3.8/stimNo117r6c17v3.8.jpg	 l	 1.548	 GoodTrial	 3.8	 bl
32	 2	 0	 x	 LineStimuli//3.8/stimNo121r0c0v3.8.jpg	 r	 2.260	 GoodTrial	 3.8	 bl
33	 2	 1	 left	 LineStimuli//3.8/stimNo104r12c8v3.8.jpg	 x	 0.528	 EARLY_RESPONSE	 3.8	 bl
34	 2	 1	 left	 LineStimuli//3.8/stimNo98r2c9v3.8.jpg	 l	 1.804	 GoodTrial	 3.8	 bl
35	 2	 1	 left	 LineStimuli//3.8/stimNo108r3c6v3.8.jpg	 l	 1.641	 GoodTrial	 3.8	 bl
36	 2	 0	 x	 LineStimuli//3.8/stimNo138r0c0v3.8.jpg	 r	 2.719	 GoodTrial	 3.8	 bl
37	 2	 0	 x	 LineStimuli//3.8/stimNo132r0c0v3.8.jpg	 x	 0.192	 EARLY_RESPONSE	 3.8	 bl
38	 2	 0	 x	 LineStimuli//3.8/stimNo128r0c0v3.8.jpg	 r	 2.241	 GoodTrial	 3.8	 bl
39	 2	 0	 x	 LineStimuli//3.8/stimNo139r0c0v3.8.jpg	 r	 4.414	 GoodTrial	 3.8	 bl
40	 2	 1	 left	 LineStimuli//3.8/stimNo109r11c8v3.8.jpg	 l	 1.970	 GoodTrial	 3.8	 bl
41	 2	 0	 x	 LineStimuli//3.8/stimNo157r0c0v3.8.jpg	 r	 2.033	 GoodTrial	 3.8	 bl
42	 2	 1	 left	 LineStimuli//3.8/stimNo93r8c2v3.8.jpg	 l	 1.964	 GoodTrial	 3.8	 bl
43	 2	 1	 left	 LineStimuli//3.8/stimNo113r14c9v3.8.jpg	 l	 2.246	 GoodTrial	 3.8	 bl
44	 2	 0	 x	 LineStimuli//3.8/stimNo150r0c0v3.8.jpg	 r	 2.278	 GoodTrial	 3.8	 bl
45	 2	 1	 right	 LineStimuli//3.8/stimNo82r9c21v3.8.jpg	 l	 1.972	 GoodTrial	 3.8	 bl
46	 2	 0	 x	 LineStimuli//3.8/stimNo154r0c0v3.8.jpg	 r	 2.594	 GoodTrial	 3.8	 bl
47	 2	 0	 x	 LineStimuli//3.8/stimNo123r0c0v3.8.jpg	 r	 2.585	 GoodTrial	 3.8	 bl
48	 2	 1	 right	 LineStimuli//3.8/stimNo114r10c14v3.8.jpg	 l	 2.210	 GoodTrial	 3.8	 bl
49	 2	 1	 right	 LineStimuli//3.8/stimNo99r2c13v3.8.jpg	 l	 2.064	 GoodTrial	 3.8	 bl
50	 2	 0	 x	 LineStimuli//3.8/stimNo156r0c0v3.8.jpg	 r	 2.416	 GoodTrial	 3.8	 bl
1	 3	 0	 x	 LineStimuli//1.5/stimNo157r0c0v1.5.jpg	 r	 2.922	 GoodTrial	 1.5	 bl
2	 3	 0	 x	 LineStimuli//1.5/stimNo133r0c0v1.5.jpg	 r	 2.079	 GoodTrial	 1.5	 bl
3	 3	 1	 left	 LineStimuli//1.5/stimNo109r8c6v1.5.jpg	 r	 1.793	 GoodTrial	 1.5	 bl
4	 3	 1	 left	 LineStimuli//1.5/stimNo88r6c7v1.5.jpg	 r	 2.764	 GoodTrial	 1.5	 bl
5	 3	 0	 x	 LineStimuli//1.5/stimNo123r0c0v1.5.jpg	 r	 2.172	 GoodTrial	 1.5	 bl
6	 3	 0	 x	 LineStimuli//1.5/stimNo141r0c0v1.5.jpg	 r	 1.626	 GoodTrial	 1.5	 bl
7	 3	 0	 x	 LineStimuli//1.5/stimNo156r0c0v1.5.jpg	 r	 2.225	 GoodTrial	 1.5	 bl
8	 3	 1	 right	 LineStimuli//1.5/stimNo119r6c19v1.5.jpg	 r	 1.629	 GoodTrial	 1.5	 bl
9	 3	 1	 left	 LineStimuli//1.5/stimNo110r7c3v1.5.jpg	 r	 1.721	 GoodTrial	 1.5	 bl
10	 3	 1	 left	 LineStimuli//1.5/stimNo87r12c5v1.5.jpg	 l	 2.197	 GoodTrial	 1.5	 bl
11	 3	 0	 x	 LineStimuli//1.5/stimNo139r0c0v1.5.jpg	 l	 2.536	 GoodTrial	 1.5	 bl
12	 3	 0	 x	 LineStimuli//1.5/stimNo143r0c0v1.5.jpg	 r	 3.112	 GoodTrial	 1.5	 bl
13	 3	 1	 right	 LineStimuli//1.5/stimNo98r8c21v1.5.jpg	 r	 2.575	 GoodTrial	 1.5	 bl
14	 3	 1	 right	 LineStimuli//1.5/stimNo95r6c14v1.5.jpg	 x	 0.728	 EARLY_RESPONSE	 1.5	 bl
15	 3	 0	 x	 LineStimuli//1.5/stimNo121r0c0v1.5.jpg	 r	 2.854	 GoodTrial	 1.5	 bl
16	 3	 0	 x	 LineStimuli//1.5/stimNo142r0c0v1.5.jpg	 r	 2.432	 GoodTrial	 1.5	 bl
17	 3	 0	 x	 LineStimuli//1.5/stimNo159r0c0v1.5.jpg	 r	 2.576	 GoodTrial	 1.5	 bl
18	 3	 0	 x	 LineStimuli//1.5/stimNo146r0c0v1.5.jpg	 r	 1.889	 GoodTrial	 1.5	 bl
19	 3	 0	 x	 LineStimuli//1.5/stimNo122r0c0v1.5.jpg	 r	 1.657	 GoodTrial	 1.5	 bl
20	 3	 1	 left	 LineStimuli//1.5/stimNo117r7c8v1.5.jpg	 r	 1.613	 GoodTrial	 1.5	 bl
21	 3	 1	 left	 LineStimuli//1.5/stimNo106r3c7v1.5.jpg	 x	 0.161	 EARLY_RESPONSE	 1.5	 bl
22	 3	 1	 right	 LineStimuli//1.5/stimNo108r13c15v1.5.jpg	 r	 2.319	 GoodTrial	 1.5	 bl
23	 3	 1	 right	 LineStimuli//1.5/stimNo93r14c18v1.5.jpg	 x	 0.864	 EARLY_RESPONSE	 1.5	 bl
24	 3	 0	 x	 LineStimuli//1.5/stimNo152r0c0v1.5.jpg	 l	 4.032	 GoodTrial	 1.5	 bl
25	 3	 0	 x	 LineStimuli//1.5/stimNo138r0c0v1.5.jpg	 r	 2.393	 GoodTrial	 1.5	 bl
26	 3	 1	 right	 LineStimuli//1.5/stimNo90r3c15v1.5.jpg	 r	 2.997	 GoodTrial	 1.5	 bl
27	 3	 0	 x	 LineStimuli//1.5/stimNo148r0c0v1.5.jpg	 r	 3.087	 GoodTrial	 1.5	 bl
28	 3	 0	 x	 LineStimuli//1.5/stimNo129r0c0v1.5.jpg	 r	 2.692	 GoodTrial	 1.5	 bl
29	 3	 1	 right	 LineStimuli//1.5/stimNo111r7c17v1.5.jpg	 r	 2.126	 GoodTrial	 1.5	 bl
30	 3	 1	 left	 LineStimuli//1.5/stimNo114r4c4v1.5.jpg	 l	 2.607	 GoodTrial	 1.5	 bl
31	 3	 1	 right	 LineStimuli//1.5/stimNo104r5c18v1.5.jpg	 r	 3.028	 GoodTrial	 1.5	 bl
32	 3	 0	 x	 LineStimuli//1.5/stimNo153r0c0v1.5.jpg	 r	 2.564	 GoodTrial	 1.5	 bl
33	 3	 1	 left	 LineStimuli//1.5/stimNo112r9c5v1.5.jpg	 x	 1.160	 GoodTrial	 1.5	 bl
34	 3	 1	 right	 LineStimuli//1.5/stimNo118r9c20v1.5.jpg	 r	 2.409	 GoodTrial	 1.5	 bl
35	 3	 0	 x	 LineStimuli//1.5/stimNo155r0c0v1.5.jpg	 x	 0.817	 EARLY_RESPONSE	 1.5	 bl
36	 3	 0	 x	 LineStimuli//1.5/stimNo134r0c0v1.5.jpg	 l	 3.852	 GoodTrial	 1.5	 bl
37	 3	 1	 right	 LineStimuli//1.5/stimNo105r3c18v1.5.jpg	 x	 1.276	 GoodTrial	 1.5	 bl
38	 3	 0	 x	 LineStimuli//1.5/stimNo160r0c0v1.5.jpg	 r	 2.596	 GoodTrial	 1.5	 bl
39	 3	 1	 left	 LineStimuli//1.5/stimNo113r4c4v1.5.jpg	 r	 4.304	 GoodTrial	 1.5	 bl
40	 3	 0	 x	 LineStimuli//1.5/stimNo151r0c0v1.5.jpg	 r	 2.559	 GoodTrial	 1.5	 bl
41	 3	 1	 right	 LineStimuli//1.5/stimNo86r6c16v1.5.jpg	 r	 3.670	 GoodTrial	 1.5	 bl
42	 3	 0	 x	 LineStimuli//1.5/stimNo140r0c0v1.5.jpg	 l	 2.566	 GoodTrial	 1.5	 bl
43	 3	 0	 x	 LineStimuli//1.5/stimNo150r0c0v1.5.jpg	 l	 3.707	 GoodTrial	 1.5	 bl
44	 3	 1	 right	 LineStimuli//1.5/stimNo115r14c18v1.5.jpg	 r	 2.927	 GoodTrial	 1.5	 bl
45	 3	 1	 right	 LineStimuli//1.5/stimNo81r6c17v1.5.jpg	 x	 0.529	 EARLY_RESPONSE	 1.5	 bl
46	 3	 0	 x	 LineStimuli//1.5/stimNo131r0c0v1.5.jpg	 r	 2.535	 GoodTrial	 1.5	 bl
47	 3	 1	 right	 LineStimuli//1.5/stimNo101r5c20v1.5.jpg	 x	 0.704	 EARLY_RESPONSE	 1.5	 bl
48	 3	 0	 x	 LineStimuli//1.5/stimNo144r0c0v1.5.jpg	 r	 3.391	 GoodTrial	 1.5	 bl
49	 3	 0	 x	 LineStimuli//1.5/stimNo130r0c0v1.5.jpg	 r	 2.192	 GoodTrial	 1.5	 bl
50	 3	 1	 left	 LineStimuli//1.5/stimNo89r8c9v1.5.jpg	 x	 1.128	 GoodTrial	 1.5	 bl
1	 4	 1	 right	 LineStimuli//1.8/stimNo90r15c13v1.8.jpg	 r	 7.976	 GoodTrial	 1.8	 bl
2	 4	 0	 x	 LineStimuli//1.8/stimNo138r0c0v1.8.jpg	 x	 0.783	 EARLY_RESPONSE	 1.8	 bl
3	 4	 1	 right	 LineStimuli//1.8/stimNo93r3c17v1.8.jpg	 r	 1.897	 GoodTrial	 1.8	 bl
4	 4	 0	 x	 LineStimuli//1.8/stimNo145r0c0v1.8.jpg	 x	 0.328	 EARLY_RESPONSE	 1.8	 bl
5	 4	 1	 left	 LineStimuli//1.8/stimNo96r13c2v1.8.jpg	 l	 2.647	 GoodTrial	 1.8	 bl
6	 4	 1	 right	 LineStimuli//1.8/stimNo102r14c17v1.8.jpg	 x	 0.600	 EARLY_RESPONSE	 1.8	 bl
7	 4	 0	 x	 LineStimuli//1.8/stimNo139r0c0v1.8.jpg	 l	 2.144	 GoodTrial	 1.8	 bl
8	 4	 1	 left	 LineStimuli//1.8/stimNo89r11c6v1.8.jpg	 l	 3.209	 GoodTrial	 1.8	 bl
9	 4	 0	 x	 LineStimuli//1.8/stimNo135r0c0v1.8.jpg	 r	 4.925	 GoodTrial	 1.8	 bl
10	 4	 0	 x	 LineStimuli//1.8/stimNo156r0c0v1.8.jpg	 r	 3.804	 GoodTrial	 1.8	 bl
11	 4	 0	 x	 LineStimuli//1.8/stimNo140r0c0v1.8.jpg	 r	 6.897	 GoodTrial	 1.8	 bl
12	 4	 1	 left	 LineStimuli//1.8/stimNo120r14c9v1.8.jpg	 r	 3.384	 GoodTrial	 1.8	 bl
13	 4	 1	 left	 LineStimuli//1.8/stimNo116r4c7v1.8.jpg	 x	 0.480	 EARLY_RESPONSE	 1.8	 bl
14	 4	 1	 right	 LineStimuli//1.8/stimNo109r7c17v1.8.jpg	 r	 5.604	 GoodTrial	 1.8	 bl
15	 4	 0	 x	 LineStimuli//1.8/stimNo136r0c0v1.8.jpg	 x	 0.384	 EARLY_RESPONSE	 1.8	 bl
16	 4	 0	 x	 LineStimuli//1.8/stimNo149r0c0v1.8.jpg	 l	 5.547	 GoodTrial	 1.8	 bl
17	 4	 0	 x	 LineStimuli//1.8/stimNo122r0c0v1.8.jpg	 x	 0.272	 EARLY_RESPONSE	 1.8	 bl
18	 4	 0	 x	 LineStimuli//1.8/stimNo124r0c0v1.8.jpg	 r	 7.694	 GoodTrial	 1.8	 bl
19	 4	 0	 x	 LineStimuli//1.8/stimNo129r0c0v1.8.jpg	 x	 0.288	 EARLY_RESPONSE	 1.8	 bl
20	 4	 1	 right	 LineStimuli//1.8/stimNo84r11c21v1.8.jpg	 r	 3.232	 GoodTrial	 1.8	 bl
21	 4	 0	 x	 LineStimuli//1.8/stimNo144r0c0v1.8.jpg	 r	 4.256	 GoodTrial	 1.8	 bl
22	 4	 1	 right	 LineStimuli//1.8/stimNo117r10c16v1.8.jpg	 x	 0.393	 EARLY_RESPONSE	 1.8	 bl
23	 4	 0	 x	 LineStimuli//1.8/stimNo141r0c0v1.8.jpg	 l	 3.840	 GoodTrial	 1.8	 bl
24	 4	 1	 right	 LineStimuli//1.8/stimNo101r4c13v1.8.jpg	 l	 2.269	 GoodTrial	 1.8	 bl
25	 4	 1	 left	 LineStimuli//1.8/stimNo95r4c9v1.8.jpg	 x	 0.208	 EARLY_RESPONSE	 1.8	 bl
26	 4	 1	 right	 LineStimuli//1.8/stimNo97r15c18v1.8.jpg	 r	 3.780	 GoodTrial	 1.8	 bl
27	 4	 1	 right	 LineStimuli//1.8/stimNo111r4c21v1.8.jpg	 x	 0.273	 EARLY_RESPONSE	 1.8	 bl
28	 4	 0	 x	 LineStimuli//1.8/stimNo121r0c0v1.8.jpg	 r	 4.433	 GoodTrial	 1.8	 bl
29	 4	 0	 x	 LineStimuli//1.8/stimNo137r0c0v1.8.jpg	 x	 0.495	 EARLY_RESPONSE	 1.8	 bl
30	 4	 0	 x	 LineStimuli//1.8/stimNo132r0c0v1.8.jpg	 r	 4.908	 GoodTrial	 1.8	 bl
31	 4	 0	 x	 LineStimuli//1.8/stimNo123r0c0v1.8.jpg	 x	 0.272	 EARLY_RESPONSE	 1.8	 bl
32	 4	 1	 left	 LineStimuli//1.8/stimNo91r14c4v1.8.jpg	 l	 3.817	 GoodTrial	 1.8	 bl
33	 4	 1	 right	 LineStimuli//1.8/stimNo99r12c16v1.8.jpg	 x	 0.424	 EARLY_RESPONSE	 1.8	 bl
34	 4	 1	 left	 LineStimuli//1.8/stimNo106r13c9v1.8.jpg	 l	 2.318	 GoodTrial	 1.8	 bl
35	 4	 1	 right	 LineStimuli//1.8/stimNo108r9c21v1.8.jpg	 x	 0.312	 EARLY_RESPONSE	 1.8	 bl
36	 4	 0	 x	 LineStimuli//1.8/stimNo134r0c0v1.8.jpg	 r	 5.257	 GoodTrial	 1.8	 bl
37	 4	 1	 left	 LineStimuli//1.8/stimNo110r4c7v1.8.jpg	 l	 3.274	 GoodTrial	 1.8	 bl
38	 4	 0	 x	 LineStimuli//1.8/stimNo130r0c0v1.8.jpg	 r	 3.660	 GoodTrial	 1.8	 bl
39	 4	 0	 x	 LineStimuli//1.8/stimNo126r0c0v1.8.jpg	 r	 4.658	 GoodTrial	 1.8	 bl
40	 4	 0	 x	 LineStimuli//1.8/stimNo152r0c0v1.8.jpg	 r	 6.485	 GoodTrial	 1.8	 bl
41	 4	 0	 x	 LineStimuli//1.8/stimNo153r0c0v1.8.jpg	 r	 2.676	 GoodTrial	 1.8	 bl
42	 4	 1	 right	 LineStimuli//1.8/stimNo114r8c13v1.8.jpg	 r	 4.576	 GoodTrial	 1.8	 bl
43	 4	 0	 x	 LineStimuli//1.8/stimNo148r0c0v1.8.jpg	 r	 1.977	 GoodTrial	 1.8	 bl
44	 4	 0	 x	 LineStimuli//1.8/stimNo143r0c0v1.8.jpg	 x	 0.647	 EARLY_RESPONSE	 1.8	 bl
45	 4	 1	 left	 LineStimuli//1.8/stimNo98r15c5v1.8.jpg	 r	 2.206	 GoodTrial	 1.8	 bl
46	 4	 1	 left	 LineStimuli//1.8/stimNo94r13c8v1.8.jpg	 l	 2.369	 GoodTrial	 1.8	 bl
47	 4	 1	 right	 LineStimuli//1.8/stimNo104r3c21v1.8.jpg	 x	 0.465	 EARLY_RESPONSE	 1.8	 bl
48	 4	 0	 x	 LineStimuli//1.8/stimNo160r0c0v1.8.jpg	 r	 3.743	 GoodTrial	 1.8	 bl
49	 4	 1	 left	 LineStimuli//1.8/stimNo103r15c10v1.8.jpg	 r	 2.615	 GoodTrial	 1.8	 bl
50	 4	 0	 x	 LineStimuli//1.8/stimNo142r0c0v1.8.jpg	 x	 0.080	 EARLY_RESPONSE	 1.8	 bl
1	 5	 1	 right	 LineStimuli//2.3/stimNo93r4c16v2.3.jpg	 l	 2.526	 GoodTrial	 2.3	 bl
2	 5	 0	 x	 LineStimuli//2.3/stimNo121r0c0v2.3.jpg	 r	 4.414	 GoodTrial	 2.3	 bl
3	 5	 0	 x	 LineStimuli//2.3/stimNo158r0c0v2.3.jpg	 r	 3.429	 GoodTrial	 2.3	 bl
4	 5	 0	 x	 LineStimuli//2.3/stimNo132r0c0v2.3.jpg	 r	 2.937	 GoodTrial	 2.3	 bl
5	 5	 0	 x	 LineStimuli//2.3/stimNo145r0c0v2.3.jpg	 r	 3.402	 GoodTrial	 2.3	 bl
6	 5	 0	 x	 LineStimuli//2.3/stimNo129r0c0v2.3.jpg	 r	 4.102	 GoodTrial	 2.3	 bl
7	 5	 1	 left	 LineStimuli//2.3/stimNo106r9c9v2.3.jpg	 l	 3.336	 GoodTrial	 2.3	 bl
8	 5	 1	 right	 LineStimuli//2.3/stimNo89r8c21v2.3.jpg	 l	 4.650	 GoodTrial	 2.3	 bl
9	 5	 1	 left	 LineStimuli//2.3/stimNo112r3c2v2.3.jpg	 l	 3.656	 GoodTrial	 2.3	 bl
10	 5	 0	 x	 LineStimuli//2.3/stimNo154r0c0v2.3.jpg	 x	 1.208	 GoodTrial	 2.3	 bl
11	 5	 0	 x	 LineStimuli//2.3/stimNo149r0c0v2.3.jpg	 r	 6.833	 GoodTrial	 2.3	 bl
12	 5	 1	 right	 LineStimuli//2.3/stimNo87r13c19v2.3.jpg	 l	 2.248	 GoodTrial	 2.3	 bl
13	 5	 0	 x	 LineStimuli//2.3/stimNo140r0c0v2.3.jpg	 r	 5.845	 GoodTrial	 2.3	 bl
14	 5	 0	 x	 LineStimuli//2.3/stimNo123r0c0v2.3.jpg	 r	 5.647	 GoodTrial	 2.3	 bl
15	 5	 1	 right	 LineStimuli//2.3/stimNo101r8c14v2.3.jpg	 l	 2.113	 GoodTrial	 2.3	 bl
16	 5	 0	 x	 LineStimuli//2.3/stimNo155r0c0v2.3.jpg	 r	 4.571	 GoodTrial	 2.3	 bl
17	 5	 1	 right	 LineStimuli//2.3/stimNo102r6c18v2.3.jpg	 l	 5.825	 GoodTrial	 2.3	 bl
18	 5	 0	 x	 LineStimuli//2.3/stimNo148r0c0v2.3.jpg	 r	 7.700	 GoodTrial	 2.3	 bl
19	 5	 1	 right	 LineStimuli//2.3/stimNo92r10c17v2.3.jpg	 l	 2.055	 GoodTrial	 2.3	 bl
20	 5	 1	 left	 LineStimuli//2.3/stimNo97r3c3v2.3.jpg	 l	 3.984	 GoodTrial	 2.3	 bl
21	 5	 1	 right	 LineStimuli//2.3/stimNo111r11c21v2.3.jpg	 l	 2.399	 GoodTrial	 2.3	 bl
22	 5	 0	 x	 LineStimuli//2.3/stimNo139r0c0v2.3.jpg	 x	 8.370	 GoodTrial	 2.3	 bl
23	 5	 1	 right	 LineStimuli//2.3/stimNo103r11c21v2.3.jpg	 l	 2.283	 GoodTrial	 2.3	 bl
24	 5	 1	 right	 LineStimuli//2.3/stimNo90r14c21v2.3.jpg	 r	 7.043	 GoodTrial	 2.3	 bl
25	 5	 0	 x	 LineStimuli//2.3/stimNo147r0c0v2.3.jpg	 r	 6.742	 GoodTrial	 2.3	 bl
26	 5	 1	 left	 LineStimuli//2.3/stimNo96r3c3v2.3.jpg	 l	 2.853	 GoodTrial	 2.3	 bl
27	 5	 1	 right	 LineStimuli//2.3/stimNo120r4c17v2.3.jpg	 l	 2.478	 GoodTrial	 2.3	 bl
28	 5	 1	 right	 LineStimuli//2.3/stimNo107r11c15v2.3.jpg	 l	 2.209	 GoodTrial	 2.3	 bl
29	 5	 0	 x	 LineStimuli//2.3/stimNo142r0c0v2.3.jpg	 r	 10.773	 GoodTrial	 2.3	 bl
30	 5	 1	 left	 LineStimuli//2.3/stimNo114r7c8v2.3.jpg	 l	 1.979	 GoodTrial	 2.3	 bl
31	 5	 0	 x	 LineStimuli//2.3/stimNo157r0c0v2.3.jpg	 r	 5.861	 GoodTrial	 2.3	 bl
32	 5	 0	 x	 LineStimuli//2.3/stimNo160r0c0v2.3.jpg	 r	 6.972	 GoodTrial	 2.3	 bl
33	 5	 0	 x	 LineStimuli//2.3/stimNo136r0c0v2.3.jpg	 r	 7.611	 GoodTrial	 2.3	 bl
34	 5	 1	 left	 LineStimuli//2.3/stimNo108r15c6v2.3.jpg	 l	 2.076	 GoodTrial	 2.3	 bl
35	 5	 1	 right	 LineStimuli//2.3/stimNo105r14c14v2.3.jpg	 l	 2.327	 GoodTrial	 2.3	 bl
36	 5	 0	 x	 LineStimuli//2.3/stimNo151r0c0v2.3.jpg	 r	 6.314	 GoodTrial	 2.3	 bl
37	 5	 0	 x	 LineStimuli//2.3/stimNo127r0c0v2.3.jpg	 r	 5.448	 GoodTrial	 2.3	 bl
38	 5	 0	 x	 LineStimuli//2.3/stimNo134r0c0v2.3.jpg	 r	 3.618	 GoodTrial	 2.3	 bl
39	 5	 0	 x	 LineStimuli//2.3/stimNo152r0c0v2.3.jpg	 r	 3.337	 GoodTrial	 2.3	 bl
40	 5	 1	 left	 LineStimuli//2.3/stimNo117r11c8v2.3.jpg	 l	 1.880	 GoodTrial	 2.3	 bl
41	 5	 1	 left	 LineStimuli//2.3/stimNo115r7c3v2.3.jpg	 l	 1.899	 GoodTrial	 2.3	 bl
42	 5	 0	 x	 LineStimuli//2.3/stimNo159r0c0v2.3.jpg	 r	 5.456	 GoodTrial	 2.3	 bl
43	 5	 0	 x	 LineStimuli//2.3/stimNo128r0c0v2.3.jpg	 r	 2.691	 GoodTrial	 2.3	 bl
44	 5	 0	 x	 LineStimuli//2.3/stimNo141r0c0v2.3.jpg	 r	 2.806	 GoodTrial	 2.3	 bl
45	 5	 0	 x	 LineStimuli//2.3/stimNo150r0c0v2.3.jpg	 r	 3.251	 GoodTrial	 2.3	 bl
46	 5	 0	 x	 LineStimuli//2.3/stimNo144r0c0v2.3.jpg	 r	 1.970	 GoodTrial	 2.3	 bl
47	 5	 0	 x	 LineStimuli//2.3/stimNo133r0c0v2.3.jpg	 r	 3.072	 GoodTrial	 2.3	 bl
48	 5	 0	 x	 LineStimuli//2.3/stimNo126r0c0v2.3.jpg	 r	 2.544	 GoodTrial	 2.3	 bl
49	 5	 1	 left	 LineStimuli//2.3/stimNo82r12c4v2.3.jpg	 l	 1.926	 GoodTrial	 2.3	 bl
50	 5	 1	 right	 LineStimuli//2.3/stimNo84r15c14v2.3.jpg	 l	 2.190	 GoodTrial	 2.3	 bl
1	 6	 1	 right	 LineStimuli//2.8/stimNo101r12c16v2.8.jpg	 l	 1.922	 GoodTrial	 2.8	 bl
2	 6	 1	 left	 LineStimuli//2.8/stimNo91r2c3v2.8.jpg	 l	 2.165	 GoodTrial	 2.8	 bl
3	 6	 1	 left	 LineStimuli//2.8/stimNo102r3c2v2.8.jpg	 l	 1.969	 GoodTrial	 2.8	 bl
4	 6	 1	 right	 LineStimuli//2.8/stimNo93r9c20v2.8.jpg	 l	 1.962	 GoodTrial	 2.8	 bl
5	 6	 1	 left	 LineStimuli//2.8/stimNo113r9c5v2.8.jpg	 l	 1.960	 GoodTrial	 2.8	 bl
6	 6	 1	 right	 LineStimuli//2.8/stimNo100r8c13v2.8.jpg	 l	 1.728	 GoodTrial	 2.8	 bl
7	 6	 1	 right	 LineStimuli//2.8/stimNo115r9c14v2.8.jpg	 l	 1.776	 GoodTrial	 2.8	 bl
8	 6	 0	 x	 LineStimuli//2.8/stimNo138r0c0v2.8.jpg	 r	 3.274	 GoodTrial	 2.8	 bl
9	 6	 0	 x	 LineStimuli//2.8/stimNo156r0c0v2.8.jpg	 r	 2.512	 GoodTrial	 2.8	 bl
10	 6	 0	 x	 LineStimuli//2.8/stimNo135r0c0v2.8.jpg	 r	 2.312	 GoodTrial	 2.8	 bl
11	 6	 1	 right	 LineStimuli//2.8/stimNo112r13c17v2.8.jpg	 l	 1.886	 GoodTrial	 2.8	 bl
12	 6	 0	 x	 LineStimuli//2.8/stimNo152r0c0v2.8.jpg	 r	 2.104	 GoodTrial	 2.8	 bl
13	 6	 0	 x	 LineStimuli//2.8/stimNo126r0c0v2.8.jpg	 r	 2.991	 GoodTrial	 2.8	 bl
14	 6	 1	 left	 LineStimuli//2.8/stimNo82r4c6v2.8.jpg	 l	 1.854	 GoodTrial	 2.8	 bl
15	 6	 1	 right	 LineStimuli//2.8/stimNo111r9c15v2.8.jpg	 l	 2.295	 GoodTrial	 2.8	 bl
16	 6	 1	 left	 LineStimuli//2.8/stimNo97r11c4v2.8.jpg	 l	 1.870	 GoodTrial	 2.8	 bl
17	 6	 1	 right	 LineStimuli//2.8/stimNo81r8c14v2.8.jpg	 l	 1.924	 GoodTrial	 2.8	 bl
18	 6	 0	 x	 LineStimuli//2.8/stimNo146r0c0v2.8.jpg	 r	 2.888	 GoodTrial	 2.8	 bl
19	 6	 1	 right	 LineStimuli//2.8/stimNo106r13c20v2.8.jpg	 l	 1.856	 GoodTrial	 2.8	 bl
20	 6	 1	 left	 LineStimuli//2.8/stimNo83r12c4v2.8.jpg	 l	 1.826	 GoodTrial	 2.8	 bl
21	 6	 0	 x	 LineStimuli//2.8/stimNo150r0c0v2.8.jpg	 r	 2.856	 GoodTrial	 2.8	 bl
22	 6	 1	 right	 LineStimuli//2.8/stimNo95r9c18v2.8.jpg	 l	 1.917	 GoodTrial	 2.8	 bl
23	 6	 0	 x	 LineStimuli//2.8/stimNo147r0c0v2.8.jpg	 r	 2.582	 GoodTrial	 2.8	 bl
24	 6	 1	 left	 LineStimuli//2.8/stimNo119r8c5v2.8.jpg	 l	 2.027	 GoodTrial	 2.8	 bl
25	 6	 1	 right	 LineStimuli//2.8/stimNo85r4c15v2.8.jpg	 l	 1.998	 GoodTrial	 2.8	 bl
26	 6	 0	 x	 LineStimuli//2.8/stimNo157r0c0v2.8.jpg	 r	 2.296	 GoodTrial	 2.8	 bl
27	 6	 0	 x	 LineStimuli//2.8/stimNo155r0c0v2.8.jpg	 r	 3.208	 GoodTrial	 2.8	 bl
28	 6	 1	 left	 LineStimuli//2.8/stimNo88r15c3v2.8.jpg	 l	 2.032	 GoodTrial	 2.8	 bl
29	 6	 1	 left	 LineStimuli//2.8/stimNo107r5c6v2.8.jpg	 l	 1.899	 GoodTrial	 2.8	 bl
30	 6	 1	 right	 LineStimuli//2.8/stimNo109r6c18v2.8.jpg	 l	 1.970	 GoodTrial	 2.8	 bl
31	 6	 0	 x	 LineStimuli//2.8/stimNo125r0c0v2.8.jpg	 r	 3.522	 GoodTrial	 2.8	 bl
32	 6	 0	 x	 LineStimuli//2.8/stimNo160r0c0v2.8.jpg	 r	 2.599	 GoodTrial	 2.8	 bl
33	 6	 0	 x	 LineStimuli//2.8/stimNo133r0c0v2.8.jpg	 r	 2.263	 GoodTrial	 2.8	 bl
34	 6	 0	 x	 LineStimuli//2.8/stimNo134r0c0v2.8.jpg	 r	 2.203	 GoodTrial	 2.8	 bl
35	 6	 0	 x	 LineStimuli//2.8/stimNo141r0c0v2.8.jpg	 r	 2.370	 GoodTrial	 2.8	 bl
36	 6	 0	 x	 LineStimuli//2.8/stimNo139r0c0v2.8.jpg	 r	 2.049	 GoodTrial	 2.8	 bl
37	 6	 1	 left	 LineStimuli//2.8/stimNo108r13c6v2.8.jpg	 l	 2.361	 GoodTrial	 2.8	 bl
38	 6	 1	 right	 LineStimuli//2.8/stimNo120r8c20v2.8.jpg	 x	 0.928	 EARLY_RESPONSE	 2.8	 bl
39	 6	 0	 x	 LineStimuli//2.8/stimNo149r0c0v2.8.jpg	 r	 3.002	 GoodTrial	 2.8	 bl
40	 6	 0	 x	 LineStimuli//2.8/stimNo123r0c0v2.8.jpg	 r	 3.568	 GoodTrial	 2.8	 bl
41	 6	 0	 x	 LineStimuli//2.8/stimNo145r0c0v2.8.jpg	 r	 2.777	 GoodTrial	 2.8	 bl
42	 6	 0	 x	 LineStimuli//2.8/stimNo151r0c0v2.8.jpg	 r	 2.390	 GoodTrial	 2.8	 bl
43	 6	 1	 right	 LineStimuli//2.8/stimNo99r9c18v2.8.jpg	 l	 1.992	 GoodTrial	 2.8	 bl
44	 6	 1	 right	 LineStimuli//2.8/stimNo110r7c14v2.8.jpg	 l	 2.865	 GoodTrial	 2.8	 bl
45	 6	 1	 left	 LineStimuli//2.8/stimNo104r8c6v2.8.jpg	 l	 1.881	 GoodTrial	 2.8	 bl
46	 6	 1	 left	 LineStimuli//2.8/stimNo105r5c4v2.8.jpg	 l	 2.157	 GoodTrial	 2.8	 bl
47	 6	 0	 x	 LineStimuli//2.8/stimNo132r0c0v2.8.jpg	 r	 2.885	 GoodTrial	 2.8	 bl
48	 6	 1	 left	 LineStimuli//2.8/stimNo84r3c9v2.8.jpg	 l	 1.919	 GoodTrial	 2.8	 bl
49	 6	 1	 left	 LineStimuli//2.8/stimNo87r11c8v2.8.jpg	 l	 1.874	 GoodTrial	 2.8	 bl
50	 6	 1	 left	 LineStimuli//2.8/stimNo98r15c2v2.8.jpg	 l	 2.327	 GoodTrial	 2.8	 bl
1	 7	 0	 x	 LineStimuli//4.3/stimNo134r0c0v4.3.jpg	 r	 4.771	 GoodTrial	 4.3	 bl
2	 7	 1	 right	 LineStimuli//4.3/stimNo97r6c21v4.3.jpg	 l	 1.919	 GoodTrial	 4.3	 bl
3	 7	 0	 x	 LineStimuli//4.3/stimNo124r0c0v4.3.jpg	 r	 3.116	 GoodTrial	 4.3	 bl
4	 7	 0	 x	 LineStimuli//4.3/stimNo126r0c0v4.3.jpg	 r	 1.970	 GoodTrial	 4.3	 bl
5	 7	 0	 x	 LineStimuli//4.3/stimNo140r0c0v4.3.jpg	 r	 1.959	 GoodTrial	 4.3	 bl
6	 7	 1	 right	 LineStimuli//4.3/stimNo109r15c15v4.3.jpg	 l	 1.899	 GoodTrial	 4.3	 bl
7	 7	 1	 left	 LineStimuli//4.3/stimNo95r11c9v4.3.jpg	 l	 1.825	 GoodTrial	 4.3	 bl
8	 7	 1	 left	 LineStimuli//4.3/stimNo87r3c5v4.3.jpg	 l	 2.055	 GoodTrial	 4.3	 bl
9	 7	 0	 x	 LineStimuli//4.3/stimNo159r0c0v4.3.jpg	 r	 4.143	 GoodTrial	 4.3	 bl
10	 7	 1	 left	 LineStimuli//4.3/stimNo101r5c5v4.3.jpg	 l	 1.815	 GoodTrial	 4.3	 bl
11	 7	 0	 x	 LineStimuli//4.3/stimNo160r0c0v4.3.jpg	 r	 2.045	 GoodTrial	 4.3	 bl
12	 7	 1	 left	 LineStimuli//4.3/stimNo111r10c9v4.3.jpg	 l	 1.767	 GoodTrial	 4.3	 bl
13	 7	 0	 x	 LineStimuli//4.3/stimNo129r0c0v4.3.jpg	 r	 2.318	 GoodTrial	 4.3	 bl
14	 7	 1	 right	 LineStimuli//4.3/stimNo84r15c20v4.3.jpg	 l	 2.262	 GoodTrial	 4.3	 bl
15	 7	 0	 x	 LineStimuli//4.3/stimNo155r0c0v4.3.jpg	 r	 2.536	 GoodTrial	 4.3	 bl
16	 7	 0	 x	 LineStimuli//4.3/stimNo131r0c0v4.3.jpg	 r	 2.231	 GoodTrial	 4.3	 bl
17	 7	 0	 x	 LineStimuli//4.3/stimNo132r0c0v4.3.jpg	 r	 3.080	 GoodTrial	 4.3	 bl
18	 7	 1	 right	 LineStimuli//4.3/stimNo112r10c16v4.3.jpg	 l	 1.827	 GoodTrial	 4.3	 bl
19	 7	 1	 left	 LineStimuli//4.3/stimNo105r14c6v4.3.jpg	 l	 1.721	 GoodTrial	 4.3	 bl
20	 7	 1	 left	 LineStimuli//4.3/stimNo104r15c2v4.3.jpg	 l	 2.119	 GoodTrial	 4.3	 bl
21	 7	 0	 x	 LineStimuli//4.3/stimNo121r0c0v4.3.jpg	 r	 2.595	 GoodTrial	 4.3	 bl
22	 7	 1	 left	 LineStimuli//4.3/stimNo110r6c7v4.3.jpg	 l	 1.813	 GoodTrial	 4.3	 bl
23	 7	 0	 x	 LineStimuli//4.3/stimNo152r0c0v4.3.jpg	 r	 2.656	 GoodTrial	 4.3	 bl
24	 7	 1	 right	 LineStimuli//4.3/stimNo102r10c19v4.3.jpg	 l	 1.974	 GoodTrial	 4.3	 bl
25	 7	 0	 x	 LineStimuli//4.3/stimNo158r0c0v4.3.jpg	 r	 2.347	 GoodTrial	 4.3	 bl
26	 7	 0	 x	 LineStimuli//4.3/stimNo149r0c0v4.3.jpg	 r	 2.293	 GoodTrial	 4.3	 bl
27	 7	 0	 x	 LineStimuli//4.3/stimNo137r0c0v4.3.jpg	 r	 2.395	 GoodTrial	 4.3	 bl
28	 7	 0	 x	 LineStimuli//4.3/stimNo128r0c0v4.3.jpg	 r	 1.996	 GoodTrial	 4.3	 bl
29	 7	 0	 x	 LineStimuli//4.3/stimNo156r0c0v4.3.jpg	 r	 1.995	 GoodTrial	 4.3	 bl
30	 7	 0	 x	 LineStimuli//4.3/stimNo147r0c0v4.3.jpg	 r	 1.847	 GoodTrial	 4.3	 bl
31	 7	 0	 x	 LineStimuli//4.3/stimNo154r0c0v4.3.jpg	 x	 1.062	 GoodTrial	 4.3	 bl
32	 7	 1	 left	 LineStimuli//4.3/stimNo113r11c7v4.3.jpg	 l	 1.903	 GoodTrial	 4.3	 bl
33	 7	 0	 x	 LineStimuli//4.3/stimNo142r0c0v4.3.jpg	 r	 3.275	 GoodTrial	 4.3	 bl
34	 7	 0	 x	 LineStimuli//4.3/stimNo123r0c0v4.3.jpg	 r	 2.366	 GoodTrial	 4.3	 bl
35	 7	 1	 right	 LineStimuli//4.3/stimNo119r12c17v4.3.jpg	 l	 2.102	 GoodTrial	 4.3	 bl
36	 7	 1	 right	 LineStimuli//4.3/stimNo81r10c14v4.3.jpg	 l	 2.030	 GoodTrial	 4.3	 bl
37	 7	 1	 right	 LineStimuli//4.3/stimNo92r2c20v4.3.jpg	 l	 2.072	 GoodTrial	 4.3	 bl
38	 7	 1	 right	 LineStimuli//4.3/stimNo117r10c21v4.3.jpg	 l	 2.152	 GoodTrial	 4.3	 bl
39	 7	 0	 x	 LineStimuli//4.3/stimNo136r0c0v4.3.jpg	 r	 2.707	 GoodTrial	 4.3	 bl
40	 7	 0	 x	 LineStimuli//4.3/stimNo127r0c0v4.3.jpg	 r	 2.774	 GoodTrial	 4.3	 bl
41	 7	 1	 left	 LineStimuli//4.3/stimNo88r10c3v4.3.jpg	 l	 1.841	 GoodTrial	 4.3	 bl
42	 7	 1	 right	 LineStimuli//4.3/stimNo96r4c19v4.3.jpg	 l	 1.907	 GoodTrial	 4.3	 bl
43	 7	 1	 right	 LineStimuli//4.3/stimNo89r3c17v4.3.jpg	 l	 1.835	 GoodTrial	 4.3	 bl
44	 7	 1	 right	 LineStimuli//4.3/stimNo120r8c18v4.3.jpg	 x	 0.976	 EARLY_RESPONSE	 4.3	 bl
45	 7	 0	 x	 LineStimuli//4.3/stimNo146r0c0v4.3.jpg	 r	 5.098	 GoodTrial	 4.3	 bl
46	 7	 1	 left	 LineStimuli//4.3/stimNo85r3c5v4.3.jpg	 l	 2.297	 GoodTrial	 4.3	 bl
47	 7	 1	 left	 LineStimuli//4.3/stimNo90r10c4v4.3.jpg	 l	 1.621	 GoodTrial	 4.3	 bl
48	 7	 0	 x	 LineStimuli//4.3/stimNo150r0c0v4.3.jpg	 r	 2.207	 GoodTrial	 4.3	 bl
49	 7	 1	 right	 LineStimuli//4.3/stimNo91r9c13v4.3.jpg	 x	 1.808	 GoodTrial	 4.3	 bl
50	 7	 0	 x	 LineStimuli//4.3/stimNo139r0c0v4.3.jpg	 r	 3.306	 GoodTrial	 4.3	 bl
