Trial	Block	Target_pr	Target_side	Name	Key	RT	Message	Block_Type	Condition
1	 1	 1	 left	 LineStimuli//3.8/stimNo113r14c9v3.8.jpg	 l	 2.050	 GoodTrial	 3.8	 bl
2	 1	 0	 x	 LineStimuli//3.8/stimNo144r0c0v3.8.jpg	 r	 1.616	 GoodTrial	 3.8	 bl
3	 1	 1	 left	 LineStimuli//3.8/stimNo110r7c9v3.8.jpg	 l	 1.568	 GoodTrial	 3.8	 bl
4	 1	 0	 x	 LineStimuli//3.8/stimNo130r0c0v3.8.jpg	 r	 2.473	 GoodTrial	 3.8	 bl
5	 1	 0	 x	 LineStimuli//3.8/stimNo151r0c0v3.8.jpg	 r	 1.717	 GoodTrial	 3.8	 bl
6	 1	 0	 x	 LineStimuli//3.8/stimNo135r0c0v3.8.jpg	 r	 1.940	 GoodTrial	 3.8	 bl
7	 1	 0	 x	 LineStimuli//3.8/stimNo148r0c0v3.8.jpg	 r	 1.600	 GoodTrial	 3.8	 bl
8	 1	 1	 right	 LineStimuli//3.8/stimNo94r6c17v3.8.jpg	 l	 1.549	 GoodTrial	 3.8	 bl
9	 1	 0	 x	 LineStimuli//3.8/stimNo124r0c0v3.8.jpg	 r	 1.766	 GoodTrial	 3.8	 bl
10	 1	 0	 x	 LineStimuli//3.8/stimNo139r0c0v3.8.jpg	 r	 1.803	 GoodTrial	 3.8	 bl
11	 1	 0	 x	 LineStimuli//3.8/stimNo153r0c0v3.8.jpg	 r	 1.739	 GoodTrial	 3.8	 bl
12	 1	 1	 right	 LineStimuli//3.8/stimNo91r10c16v3.8.jpg	 l	 1.695	 GoodTrial	 3.8	 bl
13	 1	 0	 x	 LineStimuli//3.8/stimNo159r0c0v3.8.jpg	 r	 1.749	 GoodTrial	 3.8	 bl
14	 1	 1	 left	 LineStimuli//3.8/stimNo89r10c7v3.8.jpg	 l	 1.553	 GoodTrial	 3.8	 bl
15	 1	 1	 right	 LineStimuli//3.8/stimNo101r12c17v3.8.jpg	 l	 1.509	 GoodTrial	 3.8	 bl
16	 1	 0	 x	 LineStimuli//3.8/stimNo155r0c0v3.8.jpg	 r	 1.642	 GoodTrial	 3.8	 bl
17	 1	 0	 x	 LineStimuli//3.8/stimNo140r0c0v3.8.jpg	 r	 1.526	 GoodTrial	 3.8	 bl
18	 1	 0	 x	 LineStimuli//3.8/stimNo132r0c0v3.8.jpg	 r	 1.716	 GoodTrial	 3.8	 bl
19	 1	 0	 x	 LineStimuli//3.8/stimNo158r0c0v3.8.jpg	 r	 1.496	 GoodTrial	 3.8	 bl
20	 1	 1	 right	 LineStimuli//3.8/stimNo111r15c20v3.8.jpg	 l	 1.574	 GoodTrial	 3.8	 bl
21	 1	 1	 left	 LineStimuli//3.8/stimNo120r5c3v3.8.jpg	 l	 1.888	 GoodTrial	 3.8	 bl
22	 1	 0	 x	 LineStimuli//3.8/stimNo149r0c0v3.8.jpg	 r	 1.972	 GoodTrial	 3.8	 bl
23	 1	 0	 x	 LineStimuli//3.8/stimNo128r0c0v3.8.jpg	 r	 2.273	 GoodTrial	 3.8	 bl
24	 1	 0	 x	 LineStimuli//3.8/stimNo138r0c0v3.8.jpg	 r	 1.937	 GoodTrial	 3.8	 bl
25	 1	 0	 x	 LineStimuli//3.8/stimNo136r0c0v3.8.jpg	 r	 1.511	 GoodTrial	 3.8	 bl
26	 1	 1	 right	 LineStimuli//3.8/stimNo96r2c13v3.8.jpg	 l	 1.584	 GoodTrial	 3.8	 bl
27	 1	 1	 right	 LineStimuli//3.8/stimNo99r2c13v3.8.jpg	 l	 1.497	 GoodTrial	 3.8	 bl
28	 1	 1	 right	 LineStimuli//3.8/stimNo117r6c17v3.8.jpg	 l	 1.592	 GoodTrial	 3.8	 bl
29	 1	 0	 x	 LineStimuli//3.8/stimNo160r0c0v3.8.jpg	 r	 1.680	 GoodTrial	 3.8	 bl
30	 1	 1	 left	 LineStimuli//3.8/stimNo104r12c8v3.8.jpg	 l	 1.476	 GoodTrial	 3.8	 bl
31	 1	 1	 right	 LineStimuli//3.8/stimNo114r10c14v3.8.jpg	 l	 1.520	 GoodTrial	 3.8	 bl
32	 1	 0	 x	 LineStimuli//3.8/stimNo121r0c0v3.8.jpg	 r	 1.632	 GoodTrial	 3.8	 bl
33	 1	 0	 x	 LineStimuli//3.8/stimNo129r0c0v3.8.jpg	 r	 1.704	 GoodTrial	 3.8	 bl
34	 1	 0	 x	 LineStimuli//3.8/stimNo131r0c0v3.8.jpg	 r	 1.702	 GoodTrial	 3.8	 bl
35	 1	 0	 x	 LineStimuli//3.8/stimNo122r0c0v3.8.jpg	 r	 1.575	 GoodTrial	 3.8	 bl
36	 1	 1	 left	 LineStimuli//3.8/stimNo115r14c10v3.8.jpg	 l	 1.585	 GoodTrial	 3.8	 bl
37	 1	 1	 left	 LineStimuli//3.8/stimNo106r9c9v3.8.jpg	 l	 1.645	 GoodTrial	 3.8	 bl
38	 1	 1	 left	 LineStimuli//3.8/stimNo83r9c9v3.8.jpg	 l	 1.505	 GoodTrial	 3.8	 bl
39	 1	 0	 x	 LineStimuli//3.8/stimNo154r0c0v3.8.jpg	 r	 1.685	 GoodTrial	 3.8	 bl
40	 1	 0	 x	 LineStimuli//3.8/stimNo142r0c0v3.8.jpg	 r	 1.703	 GoodTrial	 3.8	 bl
41	 1	 1	 left	 LineStimuli//3.8/stimNo119r9c8v3.8.jpg	 l	 1.473	 GoodTrial	 3.8	 bl
42	 1	 0	 x	 LineStimuli//3.8/stimNo123r0c0v3.8.jpg	 r	 1.646	 GoodTrial	 3.8	 bl
43	 1	 1	 right	 LineStimuli//3.8/stimNo85r3c13v3.8.jpg	 l	 1.512	 GoodTrial	 3.8	 bl
44	 1	 1	 right	 LineStimuli//3.8/stimNo95r5c21v3.8.jpg	 l	 1.538	 GoodTrial	 3.8	 bl
45	 1	 1	 right	 LineStimuli//3.8/stimNo84r9c19v3.8.jpg	 l	 1.500	 GoodTrial	 3.8	 bl
46	 1	 0	 x	 LineStimuli//3.8/stimNo156r0c0v3.8.jpg	 r	 1.701	 GoodTrial	 3.8	 bl
47	 1	 1	 left	 LineStimuli//3.8/stimNo97r15c9v3.8.jpg	 l	 1.723	 GoodTrial	 3.8	 bl
48	 1	 0	 x	 LineStimuli//3.8/stimNo141r0c0v3.8.jpg	 r	 1.927	 GoodTrial	 3.8	 bl
49	 1	 1	 right	 LineStimuli//3.8/stimNo88r10c17v3.8.jpg	 l	 1.589	 GoodTrial	 3.8	 bl
50	 1	 0	 x	 LineStimuli//3.8/stimNo133r0c0v3.8.jpg	 r	 1.715	 GoodTrial	 3.8	 bl
1	 2	 0	 x	 LineStimuli//1.5/stimNo147r0c0v1.5.jpg	 r	 2.973	 GoodTrial	 1.5	 bl
2	 2	 1	 right	 LineStimuli//1.5/stimNo104r5c18v1.5.jpg	 l	 2.098	 GoodTrial	 1.5	 bl
3	 2	 1	 left	 LineStimuli//1.5/stimNo109r8c6v1.5.jpg	 r	 1.944	 GoodTrial	 1.5	 bl
4	 2	 1	 right	 LineStimuli//1.5/stimNo107r2c19v1.5.jpg	 l	 1.868	 GoodTrial	 1.5	 bl
5	 2	 1	 left	 LineStimuli//1.5/stimNo97r15c6v1.5.jpg	 r	 2.656	 GoodTrial	 1.5	 bl
6	 2	 0	 x	 LineStimuli//1.5/stimNo154r0c0v1.5.jpg	 r	 2.605	 GoodTrial	 1.5	 bl
7	 2	 0	 x	 LineStimuli//1.5/stimNo146r0c0v1.5.jpg	 r	 2.620	 GoodTrial	 1.5	 bl
8	 2	 0	 x	 LineStimuli//1.5/stimNo149r0c0v1.5.jpg	 r	 2.242	 GoodTrial	 1.5	 bl
9	 2	 0	 x	 LineStimuli//1.5/stimNo133r0c0v1.5.jpg	 r	 2.673	 GoodTrial	 1.5	 bl
10	 2	 0	 x	 LineStimuli//1.5/stimNo150r0c0v1.5.jpg	 r	 2.291	 GoodTrial	 1.5	 bl
11	 2	 0	 x	 LineStimuli//1.5/stimNo139r0c0v1.5.jpg	 r	 3.963	 GoodTrial	 1.5	 bl
12	 2	 1	 left	 LineStimuli//1.5/stimNo85r2c5v1.5.jpg	 r	 3.195	 GoodTrial	 1.5	 bl
13	 2	 0	 x	 LineStimuli//1.5/stimNo126r0c0v1.5.jpg	 r	 3.469	 GoodTrial	 1.5	 bl
14	 2	 0	 x	 LineStimuli//1.5/stimNo132r0c0v1.5.jpg	 r	 5.000	 GoodTrial	 1.5	 bl
15	 2	 1	 left	 LineStimuli//1.5/stimNo88r6c7v1.5.jpg	 r	 4.228	 GoodTrial	 1.5	 bl
16	 2	 0	 x	 LineStimuli//1.5/stimNo151r0c0v1.5.jpg	 r	 6.044	 GoodTrial	 1.5	 bl
17	 2	 1	 right	 LineStimuli//1.5/stimNo115r14c18v1.5.jpg	 l	 1.975	 GoodTrial	 1.5	 bl
18	 2	 0	 x	 LineStimuli//1.5/stimNo155r0c0v1.5.jpg	 r	 4.449	 GoodTrial	 1.5	 bl
19	 2	 1	 left	 LineStimuli//1.5/stimNo91r9c3v1.5.jpg	 l	 2.028	 GoodTrial	 1.5	 bl
20	 2	 1	 left	 LineStimuli//1.5/stimNo83r12c7v1.5.jpg	 r	 4.090	 GoodTrial	 1.5	 bl
21	 2	 1	 right	 LineStimuli//1.5/stimNo92r6c18v1.5.jpg	 l	 4.314	 GoodTrial	 1.5	 bl
22	 2	 1	 left	 LineStimuli//1.5/stimNo102r7c6v1.5.jpg	 l	 5.297	 GoodTrial	 1.5	 bl
23	 2	 0	 x	 LineStimuli//1.5/stimNo144r0c0v1.5.jpg	 r	 4.902	 GoodTrial	 1.5	 bl
24	 2	 0	 x	 LineStimuli//1.5/stimNo157r0c0v1.5.jpg	 r	 5.750	 GoodTrial	 1.5	 bl
25	 2	 1	 right	 LineStimuli//1.5/stimNo119r6c19v1.5.jpg	 l	 1.719	 GoodTrial	 1.5	 bl
26	 2	 1	 right	 LineStimuli//1.5/stimNo100r6c20v1.5.jpg	 l	 1.717	 GoodTrial	 1.5	 bl
27	 2	 0	 x	 LineStimuli//1.5/stimNo129r0c0v1.5.jpg	 r	 4.931	 GoodTrial	 1.5	 bl
28	 2	 0	 x	 LineStimuli//1.5/stimNo140r0c0v1.5.jpg	 r	 4.448	 GoodTrial	 1.5	 bl
29	 2	 1	 left	 LineStimuli//1.5/stimNo94r10c6v1.5.jpg	 r	 4.134	 GoodTrial	 1.5	 bl
30	 2	 0	 x	 LineStimuli//1.5/stimNo128r0c0v1.5.jpg	 r	 5.688	 GoodTrial	 1.5	 bl
31	 2	 1	 left	 LineStimuli//1.5/stimNo96r15c4v1.5.jpg	 l	 1.854	 GoodTrial	 1.5	 bl
32	 2	 0	 x	 LineStimuli//1.5/stimNo122r0c0v1.5.jpg	 r	 5.203	 GoodTrial	 1.5	 bl
33	 2	 0	 x	 LineStimuli//1.5/stimNo134r0c0v1.5.jpg	 r	 4.376	 GoodTrial	 1.5	 bl
34	 2	 1	 right	 LineStimuli//1.5/stimNo82r11c15v1.5.jpg	 l	 3.914	 GoodTrial	 1.5	 bl
35	 2	 0	 x	 LineStimuli//1.5/stimNo137r0c0v1.5.jpg	 r	 4.590	 GoodTrial	 1.5	 bl
36	 2	 1	 right	 LineStimuli//1.5/stimNo90r3c15v1.5.jpg	 l	 1.705	 GoodTrial	 1.5	 bl
37	 2	 0	 x	 LineStimuli//1.5/stimNo125r0c0v1.5.jpg	 r	 5.228	 GoodTrial	 1.5	 bl
38	 2	 1	 right	 LineStimuli//1.5/stimNo84r3c18v1.5.jpg	 l	 1.661	 GoodTrial	 1.5	 bl
39	 2	 0	 x	 LineStimuli//1.5/stimNo145r0c0v1.5.jpg	 r	 5.336	 GoodTrial	 1.5	 bl
40	 2	 0	 x	 LineStimuli//1.5/stimNo123r0c0v1.5.jpg	 r	 4.441	 GoodTrial	 1.5	 bl
41	 2	 0	 x	 LineStimuli//1.5/stimNo131r0c0v1.5.jpg	 r	 4.564	 GoodTrial	 1.5	 bl
42	 2	 0	 x	 LineStimuli//1.5/stimNo138r0c0v1.5.jpg	 r	 5.844	 GoodTrial	 1.5	 bl
43	 2	 0	 x	 LineStimuli//1.5/stimNo143r0c0v1.5.jpg	 r	 4.496	 GoodTrial	 1.5	 bl
44	 2	 1	 left	 LineStimuli//1.5/stimNo116r7c7v1.5.jpg	 l	 3.065	 GoodTrial	 1.5	 bl
45	 2	 0	 x	 LineStimuli//1.5/stimNo156r0c0v1.5.jpg	 r	 6.668	 GoodTrial	 1.5	 bl
46	 2	 0	 x	 LineStimuli//1.5/stimNo130r0c0v1.5.jpg	 r	 5.271	 GoodTrial	 1.5	 bl
47	 2	 0	 x	 LineStimuli//1.5/stimNo142r0c0v1.5.jpg	 r	 4.329	 GoodTrial	 1.5	 bl
48	 2	 1	 left	 LineStimuli//1.5/stimNo112r9c5v1.5.jpg	 l	 2.107	 GoodTrial	 1.5	 bl
49	 2	 0	 x	 LineStimuli//1.5/stimNo127r0c0v1.5.jpg	 r	 3.545	 GoodTrial	 1.5	 bl
50	 2	 1	 right	 LineStimuli//1.5/stimNo103r13c17v1.5.jpg	 r	 3.952	 GoodTrial	 1.5	 bl
1	 3	 0	 x	 LineStimuli//1.8/stimNo132r0c0v1.8.jpg	 r	 3.359	 GoodTrial	 1.8	 bl
2	 3	 0	 x	 LineStimuli//1.8/stimNo157r0c0v1.8.jpg	 r	 4.053	 GoodTrial	 1.8	 bl
3	 3	 0	 x	 LineStimuli//1.8/stimNo134r0c0v1.8.jpg	 r	 2.839	 GoodTrial	 1.8	 bl
4	 3	 0	 x	 LineStimuli//1.8/stimNo151r0c0v1.8.jpg	 r	 3.232	 GoodTrial	 1.8	 bl
5	 3	 1	 left	 LineStimuli//1.8/stimNo98r15c5v1.8.jpg	 l	 1.807	 GoodTrial	 1.8	 bl
6	 3	 0	 x	 LineStimuli//1.8/stimNo123r0c0v1.8.jpg	 r	 2.671	 GoodTrial	 1.8	 bl
7	 3	 0	 x	 LineStimuli//1.8/stimNo148r0c0v1.8.jpg	 r	 2.260	 GoodTrial	 1.8	 bl
8	 3	 1	 left	 LineStimuli//1.8/stimNo91r14c4v1.8.jpg	 l	 1.656	 GoodTrial	 1.8	 bl
9	 3	 0	 x	 LineStimuli//1.8/stimNo141r0c0v1.8.jpg	 r	 2.439	 GoodTrial	 1.8	 bl
10	 3	 1	 left	 LineStimuli//1.8/stimNo86r14c4v1.8.jpg	 l	 1.695	 GoodTrial	 1.8	 bl
11	 3	 1	 right	 LineStimuli//1.8/stimNo102r14c17v1.8.jpg	 l	 1.739	 GoodTrial	 1.8	 bl
12	 3	 1	 right	 LineStimuli//1.8/stimNo118r11c15v1.8.jpg	 l	 1.735	 GoodTrial	 1.8	 bl
13	 3	 0	 x	 LineStimuli//1.8/stimNo124r0c0v1.8.jpg	 r	 2.748	 GoodTrial	 1.8	 bl
14	 3	 1	 right	 LineStimuli//1.8/stimNo111r4c21v1.8.jpg	 l	 1.568	 GoodTrial	 1.8	 bl
15	 3	 1	 right	 LineStimuli//1.8/stimNo82r7c18v1.8.jpg	 l	 1.558	 GoodTrial	 1.8	 bl
16	 3	 0	 x	 LineStimuli//1.8/stimNo126r0c0v1.8.jpg	 r	 2.468	 GoodTrial	 1.8	 bl
17	 3	 0	 x	 LineStimuli//1.8/stimNo129r0c0v1.8.jpg	 r	 2.536	 GoodTrial	 1.8	 bl
18	 3	 0	 x	 LineStimuli//1.8/stimNo137r0c0v1.8.jpg	 r	 2.408	 GoodTrial	 1.8	 bl
19	 3	 0	 x	 LineStimuli//1.8/stimNo121r0c0v1.8.jpg	 r	 2.616	 GoodTrial	 1.8	 bl
20	 3	 1	 left	 LineStimuli//1.8/stimNo95r4c9v1.8.jpg	 l	 1.924	 GoodTrial	 1.8	 bl
21	 3	 0	 x	 LineStimuli//1.8/stimNo139r0c0v1.8.jpg	 r	 2.287	 GoodTrial	 1.8	 bl
22	 3	 1	 right	 LineStimuli//1.8/stimNo84r11c21v1.8.jpg	 l	 1.608	 GoodTrial	 1.8	 bl
23	 3	 0	 x	 LineStimuli//1.8/stimNo131r0c0v1.8.jpg	 r	 2.461	 GoodTrial	 1.8	 bl
24	 3	 1	 left	 LineStimuli//1.8/stimNo115r5c9v1.8.jpg	 l	 1.791	 GoodTrial	 1.8	 bl
25	 3	 0	 x	 LineStimuli//1.8/stimNo140r0c0v1.8.jpg	 r	 2.503	 GoodTrial	 1.8	 bl
26	 3	 1	 left	 LineStimuli//1.8/stimNo113r6c7v1.8.jpg	 l	 1.923	 GoodTrial	 1.8	 bl
27	 3	 0	 x	 LineStimuli//1.8/stimNo144r0c0v1.8.jpg	 r	 1.951	 GoodTrial	 1.8	 bl
28	 3	 0	 x	 LineStimuli//1.8/stimNo160r0c0v1.8.jpg	 r	 1.994	 GoodTrial	 1.8	 bl
29	 3	 1	 right	 LineStimuli//1.8/stimNo83r6c13v1.8.jpg	 l	 2.288	 GoodTrial	 1.8	 bl
30	 3	 1	 right	 LineStimuli//1.8/stimNo119r3c21v1.8.jpg	 l	 1.607	 GoodTrial	 1.8	 bl
31	 3	 1	 right	 LineStimuli//1.8/stimNo101r4c13v1.8.jpg	 l	 1.577	 GoodTrial	 1.8	 bl
32	 3	 0	 x	 LineStimuli//1.8/stimNo142r0c0v1.8.jpg	 r	 2.776	 GoodTrial	 1.8	 bl
33	 3	 1	 right	 LineStimuli//1.8/stimNo90r15c13v1.8.jpg	 l	 2.036	 GoodTrial	 1.8	 bl
34	 3	 1	 right	 LineStimuli//1.8/stimNo114r8c13v1.8.jpg	 l	 2.211	 GoodTrial	 1.8	 bl
35	 3	 1	 left	 LineStimuli//1.8/stimNo116r4c7v1.8.jpg	 l	 1.721	 GoodTrial	 1.8	 bl
36	 3	 0	 x	 LineStimuli//1.8/stimNo158r0c0v1.8.jpg	 r	 2.768	 GoodTrial	 1.8	 bl
37	 3	 1	 left	 LineStimuli//1.8/stimNo110r4c7v1.8.jpg	 l	 1.559	 GoodTrial	 1.8	 bl
38	 3	 1	 left	 LineStimuli//1.8/stimNo103r15c10v1.8.jpg	 r	 2.493	 GoodTrial	 1.8	 bl
39	 3	 1	 right	 LineStimuli//1.8/stimNo112r6c15v1.8.jpg	 l	 1.554	 GoodTrial	 1.8	 bl
40	 3	 1	 left	 LineStimuli//1.8/stimNo87r14c2v1.8.jpg	 l	 1.957	 GoodTrial	 1.8	 bl
41	 3	 1	 left	 LineStimuli//1.8/stimNo85r13c2v1.8.jpg	 l	 1.592	 GoodTrial	 1.8	 bl
42	 3	 0	 x	 LineStimuli//1.8/stimNo135r0c0v1.8.jpg	 r	 2.677	 GoodTrial	 1.8	 bl
43	 3	 1	 right	 LineStimuli//1.8/stimNo109r7c17v1.8.jpg	 l	 1.569	 GoodTrial	 1.8	 bl
44	 3	 0	 x	 LineStimuli//1.8/stimNo153r0c0v1.8.jpg	 r	 2.911	 GoodTrial	 1.8	 bl
45	 3	 0	 x	 LineStimuli//1.8/stimNo143r0c0v1.8.jpg	 r	 2.073	 GoodTrial	 1.8	 bl
46	 3	 1	 left	 LineStimuli//1.8/stimNo96r13c2v1.8.jpg	 l	 1.618	 GoodTrial	 1.8	 bl
47	 3	 0	 x	 LineStimuli//1.8/stimNo127r0c0v1.8.jpg	 r	 1.901	 GoodTrial	 1.8	 bl
48	 3	 0	 x	 LineStimuli//1.8/stimNo154r0c0v1.8.jpg	 r	 2.998	 GoodTrial	 1.8	 bl
49	 3	 1	 left	 LineStimuli//1.8/stimNo106r13c9v1.8.jpg	 r	 2.708	 GoodTrial	 1.8	 bl
50	 3	 1	 right	 LineStimuli//1.8/stimNo93r3c17v1.8.jpg	 l	 1.626	 GoodTrial	 1.8	 bl
1	 4	 1	 right	 LineStimuli//3.3/stimNo120r8c14v3.3.jpg	 l	 1.640	 GoodTrial	 3.3	 bl
2	 4	 1	 left	 LineStimuli//3.3/stimNo100r3c3v3.3.jpg	 l	 1.574	 GoodTrial	 3.3	 bl
3	 4	 0	 x	 LineStimuli//3.3/stimNo145r0c0v3.3.jpg	 r	 1.698	 GoodTrial	 3.3	 bl
4	 4	 1	 right	 LineStimuli//3.3/stimNo116r10c14v3.3.jpg	 r	 1.566	 GoodTrial	 3.3	 bl
5	 4	 0	 x	 LineStimuli//3.3/stimNo137r0c0v3.3.jpg	 r	 1.774	 GoodTrial	 3.3	 bl
6	 4	 1	 left	 LineStimuli//3.3/stimNo117r2c5v3.3.jpg	 l	 1.523	 GoodTrial	 3.3	 bl
7	 4	 0	 x	 LineStimuli//3.3/stimNo128r0c0v3.3.jpg	 r	 1.619	 GoodTrial	 3.3	 bl
8	 4	 1	 left	 LineStimuli//3.3/stimNo106r9c9v3.3.jpg	 l	 1.568	 GoodTrial	 3.3	 bl
9	 4	 1	 right	 LineStimuli//3.3/stimNo88r9c14v3.3.jpg	 l	 1.601	 GoodTrial	 3.3	 bl
10	 4	 0	 x	 LineStimuli//3.3/stimNo139r0c0v3.3.jpg	 r	 1.669	 GoodTrial	 3.3	 bl
11	 4	 0	 x	 LineStimuli//3.3/stimNo142r0c0v3.3.jpg	 r	 1.619	 GoodTrial	 3.3	 bl
12	 4	 0	 x	 LineStimuli//3.3/stimNo126r0c0v3.3.jpg	 r	 1.601	 GoodTrial	 3.3	 bl
13	 4	 1	 left	 LineStimuli//3.3/stimNo119r15c7v3.3.jpg	 l	 1.592	 GoodTrial	 3.3	 bl
14	 4	 1	 right	 LineStimuli//3.3/stimNo112r5c15v3.3.jpg	 l	 1.460	 GoodTrial	 3.3	 bl
15	 4	 1	 right	 LineStimuli//3.3/stimNo89r5c21v3.3.jpg	 l	 1.570	 GoodTrial	 3.3	 bl
16	 4	 1	 right	 LineStimuli//3.3/stimNo97r6c13v3.3.jpg	 l	 1.520	 GoodTrial	 3.3	 bl
17	 4	 1	 left	 LineStimuli//3.3/stimNo103r6c6v3.3.jpg	 l	 1.724	 GoodTrial	 3.3	 bl
18	 4	 1	 left	 LineStimuli//3.3/stimNo90r2c9v3.3.jpg	 l	 1.558	 GoodTrial	 3.3	 bl
19	 4	 1	 right	 LineStimuli//3.3/stimNo99r6c17v3.3.jpg	 l	 1.504	 GoodTrial	 3.3	 bl
20	 4	 0	 x	 LineStimuli//3.3/stimNo157r0c0v3.3.jpg	 r	 1.592	 GoodTrial	 3.3	 bl
21	 4	 0	 x	 LineStimuli//3.3/stimNo155r0c0v3.3.jpg	 r	 1.593	 GoodTrial	 3.3	 bl
22	 4	 0	 x	 LineStimuli//3.3/stimNo143r0c0v3.3.jpg	 r	 1.599	 GoodTrial	 3.3	 bl
23	 4	 0	 x	 LineStimuli//3.3/stimNo132r0c0v3.3.jpg	 r	 1.671	 GoodTrial	 3.3	 bl
24	 4	 0	 x	 LineStimuli//3.3/stimNo140r0c0v3.3.jpg	 r	 1.831	 GoodTrial	 3.3	 bl
25	 4	 0	 x	 LineStimuli//3.3/stimNo146r0c0v3.3.jpg	 r	 1.597	 GoodTrial	 3.3	 bl
26	 4	 1	 left	 LineStimuli//3.3/stimNo81r15c8v3.3.jpg	 l	 1.873	 GoodTrial	 3.3	 bl
27	 4	 0	 x	 LineStimuli//3.3/stimNo124r0c0v3.3.jpg	 r	 2.248	 GoodTrial	 3.3	 bl
28	 4	 0	 x	 LineStimuli//3.3/stimNo134r0c0v3.3.jpg	 r	 1.991	 GoodTrial	 3.3	 bl
29	 4	 0	 x	 LineStimuli//3.3/stimNo153r0c0v3.3.jpg	 r	 1.893	 GoodTrial	 3.3	 bl
30	 4	 1	 right	 LineStimuli//3.3/stimNo102r13c13v3.3.jpg	 r	 1.533	 GoodTrial	 3.3	 bl
31	 4	 1	 left	 LineStimuli//3.3/stimNo115r3c4v3.3.jpg	 l	 1.464	 GoodTrial	 3.3	 bl
32	 4	 0	 x	 LineStimuli//3.3/stimNo144r0c0v3.3.jpg	 r	 1.826	 GoodTrial	 3.3	 bl
33	 4	 1	 left	 LineStimuli//3.3/stimNo83r8c3v3.3.jpg	 l	 1.619	 GoodTrial	 3.3	 bl
34	 4	 0	 x	 LineStimuli//3.3/stimNo122r0c0v3.3.jpg	 r	 1.895	 GoodTrial	 3.3	 bl
35	 4	 0	 x	 LineStimuli//3.3/stimNo127r0c0v3.3.jpg	 r	 1.618	 GoodTrial	 3.3	 bl
36	 4	 0	 x	 LineStimuli//3.3/stimNo159r0c0v3.3.jpg	 r	 1.671	 GoodTrial	 3.3	 bl
37	 4	 1	 left	 LineStimuli//3.3/stimNo86r5c7v3.3.jpg	 l	 1.525	 GoodTrial	 3.3	 bl
38	 4	 1	 left	 LineStimuli//3.3/stimNo111r15c7v3.3.jpg	 l	 1.553	 GoodTrial	 3.3	 bl
39	 4	 0	 x	 LineStimuli//3.3/stimNo160r0c0v3.3.jpg	 r	 1.665	 GoodTrial	 3.3	 bl
40	 4	 0	 x	 LineStimuli//3.3/stimNo154r0c0v3.3.jpg	 r	 1.644	 GoodTrial	 3.3	 bl
41	 4	 1	 left	 LineStimuli//3.3/stimNo92r10c7v3.3.jpg	 l	 1.557	 GoodTrial	 3.3	 bl
42	 4	 1	 left	 LineStimuli//3.3/stimNo95r15c8v3.3.jpg	 l	 1.590	 GoodTrial	 3.3	 bl
43	 4	 1	 right	 LineStimuli//3.3/stimNo101r7c16v3.3.jpg	 l	 1.496	 GoodTrial	 3.3	 bl
44	 4	 1	 right	 LineStimuli//3.3/stimNo98r4c21v3.3.jpg	 l	 1.488	 GoodTrial	 3.3	 bl
45	 4	 0	 x	 LineStimuli//3.3/stimNo129r0c0v3.3.jpg	 r	 1.778	 GoodTrial	 3.3	 bl
46	 4	 0	 x	 LineStimuli//3.3/stimNo138r0c0v3.3.jpg	 r	 2.307	 GoodTrial	 3.3	 bl
47	 4	 1	 right	 LineStimuli//3.3/stimNo105r7c20v3.3.jpg	 l	 1.717	 GoodTrial	 3.3	 bl
48	 4	 0	 x	 LineStimuli//3.3/stimNo136r0c0v3.3.jpg	 r	 1.641	 GoodTrial	 3.3	 bl
49	 4	 1	 right	 LineStimuli//3.3/stimNo87r15c13v3.3.jpg	 l	 1.599	 GoodTrial	 3.3	 bl
50	 4	 1	 right	 LineStimuli//3.3/stimNo113r13c15v3.3.jpg	 l	 1.519	 GoodTrial	 3.3	 bl
1	 5	 1	 left	 LineStimuli//2.8/stimNo107r5c6v2.8.jpg	 l	 1.571	 GoodTrial	 2.8	 bl
2	 5	 0	 x	 LineStimuli//2.8/stimNo150r0c0v2.8.jpg	 r	 2.262	 GoodTrial	 2.8	 bl
3	 5	 1	 left	 LineStimuli//2.8/stimNo102r3c2v2.8.jpg	 l	 1.586	 GoodTrial	 2.8	 bl
4	 5	 0	 x	 LineStimuli//2.8/stimNo125r0c0v2.8.jpg	 r	 1.815	 GoodTrial	 2.8	 bl
5	 5	 1	 right	 LineStimuli//2.8/stimNo114r8c19v2.8.jpg	 l	 1.760	 GoodTrial	 2.8	 bl
6	 5	 0	 x	 LineStimuli//2.8/stimNo133r0c0v2.8.jpg	 r	 1.843	 GoodTrial	 2.8	 bl
7	 5	 1	 right	 LineStimuli//2.8/stimNo115r9c14v2.8.jpg	 l	 1.587	 GoodTrial	 2.8	 bl
8	 5	 0	 x	 LineStimuli//2.8/stimNo151r0c0v2.8.jpg	 r	 1.718	 GoodTrial	 2.8	 bl
9	 5	 1	 right	 LineStimuli//2.8/stimNo92r14c21v2.8.jpg	 l	 1.520	 GoodTrial	 2.8	 bl
10	 5	 0	 x	 LineStimuli//2.8/stimNo153r0c0v2.8.jpg	 r	 1.643	 GoodTrial	 2.8	 bl
11	 5	 1	 right	 LineStimuli//2.8/stimNo85r4c15v2.8.jpg	 l	 1.524	 GoodTrial	 2.8	 bl
12	 5	 0	 x	 LineStimuli//2.8/stimNo136r0c0v2.8.jpg	 r	 1.719	 GoodTrial	 2.8	 bl
13	 5	 0	 x	 LineStimuli//2.8/stimNo143r0c0v2.8.jpg	 r	 1.805	 GoodTrial	 2.8	 bl
14	 5	 0	 x	 LineStimuli//2.8/stimNo157r0c0v2.8.jpg	 r	 1.733	 GoodTrial	 2.8	 bl
15	 5	 1	 left	 LineStimuli//2.8/stimNo84r3c9v2.8.jpg	 l	 1.497	 GoodTrial	 2.8	 bl
16	 5	 0	 x	 LineStimuli//2.8/stimNo158r0c0v2.8.jpg	 r	 1.712	 GoodTrial	 2.8	 bl
17	 5	 1	 left	 LineStimuli//2.8/stimNo105r5c4v2.8.jpg	 l	 1.569	 GoodTrial	 2.8	 bl
18	 5	 1	 right	 LineStimuli//2.8/stimNo103r3c19v2.8.jpg	 l	 1.552	 GoodTrial	 2.8	 bl
19	 5	 1	 left	 LineStimuli//2.8/stimNo98r15c2v2.8.jpg	 l	 1.600	 GoodTrial	 2.8	 bl
20	 5	 1	 left	 LineStimuli//2.8/stimNo104r8c6v2.8.jpg	 l	 1.583	 GoodTrial	 2.8	 bl
21	 5	 1	 right	 LineStimuli//2.8/stimNo99r9c18v2.8.jpg	 l	 1.506	 GoodTrial	 2.8	 bl
22	 5	 1	 left	 LineStimuli//2.8/stimNo97r11c4v2.8.jpg	 l	 1.578	 GoodTrial	 2.8	 bl
23	 5	 0	 x	 LineStimuli//2.8/stimNo131r0c0v2.8.jpg	 r	 2.048	 GoodTrial	 2.8	 bl
24	 5	 1	 left	 LineStimuli//2.8/stimNo86r15c6v2.8.jpg	 l	 1.609	 GoodTrial	 2.8	 bl
25	 5	 0	 x	 LineStimuli//2.8/stimNo132r0c0v2.8.jpg	 r	 2.064	 GoodTrial	 2.8	 bl
26	 5	 1	 left	 LineStimuli//2.8/stimNo119r8c5v2.8.jpg	 l	 1.536	 GoodTrial	 2.8	 bl
27	 5	 1	 right	 LineStimuli//2.8/stimNo110r7c14v2.8.jpg	 l	 1.642	 GoodTrial	 2.8	 bl
28	 5	 1	 right	 LineStimuli//2.8/stimNo109r6c18v2.8.jpg	 l	 1.498	 GoodTrial	 2.8	 bl
29	 5	 1	 right	 LineStimuli//2.8/stimNo101r12c16v2.8.jpg	 l	 1.818	 GoodTrial	 2.8	 bl
30	 5	 0	 x	 LineStimuli//2.8/stimNo159r0c0v2.8.jpg	 r	 1.791	 GoodTrial	 2.8	 bl
31	 5	 0	 x	 LineStimuli//2.8/stimNo135r0c0v2.8.jpg	 r	 2.368	 GoodTrial	 2.8	 bl
32	 5	 1	 left	 LineStimuli//2.8/stimNo96r6c9v2.8.jpg	 l	 1.762	 GoodTrial	 2.8	 bl
33	 5	 1	 right	 LineStimuli//2.8/stimNo95r9c18v2.8.jpg	 l	 1.584	 GoodTrial	 2.8	 bl
34	 5	 0	 x	 LineStimuli//2.8/stimNo142r0c0v2.8.jpg	 r	 1.654	 GoodTrial	 2.8	 bl
35	 5	 0	 x	 LineStimuli//2.8/stimNo146r0c0v2.8.jpg	 r	 1.727	 GoodTrial	 2.8	 bl
36	 5	 0	 x	 LineStimuli//2.8/stimNo130r0c0v2.8.jpg	 r	 1.860	 GoodTrial	 2.8	 bl
37	 5	 0	 x	 LineStimuli//2.8/stimNo127r0c0v2.8.jpg	 r	 1.589	 GoodTrial	 2.8	 bl
38	 5	 1	 left	 LineStimuli//2.8/stimNo88r15c3v2.8.jpg	 l	 1.767	 GoodTrial	 2.8	 bl
39	 5	 1	 left	 LineStimuli//2.8/stimNo87r11c8v2.8.jpg	 r	 2.048	 GoodTrial	 2.8	 bl
40	 5	 0	 x	 LineStimuli//2.8/stimNo145r0c0v2.8.jpg	 r	 2.572	 GoodTrial	 2.8	 bl
41	 5	 1	 left	 LineStimuli//2.8/stimNo91r2c3v2.8.jpg	 l	 1.730	 GoodTrial	 2.8	 bl
42	 5	 0	 x	 LineStimuli//2.8/stimNo149r0c0v2.8.jpg	 r	 2.229	 GoodTrial	 2.8	 bl
43	 5	 0	 x	 LineStimuli//2.8/stimNo155r0c0v2.8.jpg	 r	 1.814	 GoodTrial	 2.8	 bl
44	 5	 1	 right	 LineStimuli//2.8/stimNo106r13c20v2.8.jpg	 l	 1.550	 GoodTrial	 2.8	 bl
45	 5	 0	 x	 LineStimuli//2.8/stimNo148r0c0v2.8.jpg	 r	 1.751	 GoodTrial	 2.8	 bl
46	 5	 0	 x	 LineStimuli//2.8/stimNo152r0c0v2.8.jpg	 r	 1.674	 GoodTrial	 2.8	 bl
47	 5	 0	 x	 LineStimuli//2.8/stimNo154r0c0v2.8.jpg	 r	 1.860	 GoodTrial	 2.8	 bl
48	 5	 0	 x	 LineStimuli//2.8/stimNo147r0c0v2.8.jpg	 r	 1.674	 GoodTrial	 2.8	 bl
49	 5	 0	 x	 LineStimuli//2.8/stimNo156r0c0v2.8.jpg	 r	 1.640	 GoodTrial	 2.8	 bl
50	 5	 0	 x	 LineStimuli//2.8/stimNo123r0c0v2.8.jpg	 r	 2.362	 GoodTrial	 2.8	 bl
1	 6	 1	 right	 LineStimuli//2.3/stimNo111r11c21v2.3.jpg	 l	 1.641	 GoodTrial	 2.3	 bl
2	 6	 1	 left	 LineStimuli//2.3/stimNo116r2c2v2.3.jpg	 l	 1.543	 GoodTrial	 2.3	 bl
3	 6	 0	 x	 LineStimuli//2.3/stimNo151r0c0v2.3.jpg	 r	 2.048	 GoodTrial	 2.3	 bl
4	 6	 0	 x	 LineStimuli//2.3/stimNo135r0c0v2.3.jpg	 r	 1.785	 GoodTrial	 2.3	 bl
5	 6	 0	 x	 LineStimuli//2.3/stimNo148r0c0v2.3.jpg	 r	 1.757	 GoodTrial	 2.3	 bl
6	 6	 0	 x	 LineStimuli//2.3/stimNo128r0c0v2.3.jpg	 r	 1.636	 GoodTrial	 2.3	 bl
7	 6	 0	 x	 LineStimuli//2.3/stimNo147r0c0v2.3.jpg	 r	 1.662	 GoodTrial	 2.3	 bl
8	 6	 0	 x	 LineStimuli//2.3/stimNo138r0c0v2.3.jpg	 r	 1.801	 GoodTrial	 2.3	 bl
9	 6	 0	 x	 LineStimuli//2.3/stimNo126r0c0v2.3.jpg	 r	 1.723	 GoodTrial	 2.3	 bl
10	 6	 0	 x	 LineStimuli//2.3/stimNo144r0c0v2.3.jpg	 r	 1.952	 GoodTrial	 2.3	 bl
11	 6	 1	 right	 LineStimuli//2.3/stimNo102r6c18v2.3.jpg	 l	 1.689	 GoodTrial	 2.3	 bl
12	 6	 0	 x	 LineStimuli//2.3/stimNo124r0c0v2.3.jpg	 r	 1.887	 GoodTrial	 2.3	 bl
13	 6	 0	 x	 LineStimuli//2.3/stimNo129r0c0v2.3.jpg	 r	 1.889	 GoodTrial	 2.3	 bl
14	 6	 0	 x	 LineStimuli//2.3/stimNo157r0c0v2.3.jpg	 r	 1.704	 GoodTrial	 2.3	 bl
15	 6	 1	 left	 LineStimuli//2.3/stimNo81r4c3v2.3.jpg	 l	 1.592	 GoodTrial	 2.3	 bl
16	 6	 0	 x	 LineStimuli//2.3/stimNo133r0c0v2.3.jpg	 r	 1.732	 GoodTrial	 2.3	 bl
17	 6	 1	 right	 LineStimuli//2.3/stimNo103r11c21v2.3.jpg	 l	 1.654	 GoodTrial	 2.3	 bl
18	 6	 1	 left	 LineStimuli//2.3/stimNo97r3c3v2.3.jpg	 l	 1.652	 GoodTrial	 2.3	 bl
19	 6	 0	 x	 LineStimuli//2.3/stimNo134r0c0v2.3.jpg	 r	 1.865	 GoodTrial	 2.3	 bl
20	 6	 0	 x	 LineStimuli//2.3/stimNo154r0c0v2.3.jpg	 r	 1.847	 GoodTrial	 2.3	 bl
21	 6	 1	 left	 LineStimuli//2.3/stimNo117r11c8v2.3.jpg	 l	 1.610	 GoodTrial	 2.3	 bl
22	 6	 1	 left	 LineStimuli//2.3/stimNo114r7c8v2.3.jpg	 l	 1.777	 GoodTrial	 2.3	 bl
23	 6	 1	 left	 LineStimuli//2.3/stimNo106r9c9v2.3.jpg	 l	 1.550	 GoodTrial	 2.3	 bl
24	 6	 1	 right	 LineStimuli//2.3/stimNo105r14c14v2.3.jpg	 l	 1.797	 GoodTrial	 2.3	 bl
25	 6	 1	 right	 LineStimuli//2.3/stimNo87r13c19v2.3.jpg	 l	 1.598	 GoodTrial	 2.3	 bl
26	 6	 1	 right	 LineStimuli//2.3/stimNo89r8c21v2.3.jpg	 l	 1.516	 GoodTrial	 2.3	 bl
27	 6	 1	 right	 LineStimuli//2.3/stimNo91r11c20v2.3.jpg	 l	 1.514	 GoodTrial	 2.3	 bl
28	 6	 0	 x	 LineStimuli//2.3/stimNo130r0c0v2.3.jpg	 r	 2.455	 GoodTrial	 2.3	 bl
29	 6	 1	 left	 LineStimuli//2.3/stimNo115r7c3v2.3.jpg	 l	 1.599	 GoodTrial	 2.3	 bl
30	 6	 1	 left	 LineStimuli//2.3/stimNo112r3c2v2.3.jpg	 l	 1.551	 GoodTrial	 2.3	 bl
31	 6	 1	 left	 LineStimuli//2.3/stimNo83r14c4v2.3.jpg	 l	 1.615	 GoodTrial	 2.3	 bl
32	 6	 0	 x	 LineStimuli//2.3/stimNo146r0c0v2.3.jpg	 r	 1.795	 GoodTrial	 2.3	 bl
33	 6	 1	 left	 LineStimuli//2.3/stimNo95r13c9v2.3.jpg	 l	 1.605	 GoodTrial	 2.3	 bl
34	 6	 0	 x	 LineStimuli//2.3/stimNo149r0c0v2.3.jpg	 r	 1.856	 GoodTrial	 2.3	 bl
35	 6	 1	 left	 LineStimuli//2.3/stimNo96r3c3v2.3.jpg	 l	 1.919	 GoodTrial	 2.3	 bl
36	 6	 0	 x	 LineStimuli//2.3/stimNo140r0c0v2.3.jpg	 r	 2.199	 GoodTrial	 2.3	 bl
37	 6	 1	 right	 LineStimuli//2.3/stimNo92r10c17v2.3.jpg	 l	 1.474	 GoodTrial	 2.3	 bl
38	 6	 1	 right	 LineStimuli//2.3/stimNo110r15c19v2.3.jpg	 l	 1.585	 GoodTrial	 2.3	 bl
39	 6	 0	 x	 LineStimuli//2.3/stimNo137r0c0v2.3.jpg	 r	 1.818	 GoodTrial	 2.3	 bl
40	 6	 1	 left	 LineStimuli//2.3/stimNo94r8c9v2.3.jpg	 l	 1.601	 GoodTrial	 2.3	 bl
41	 6	 0	 x	 LineStimuli//2.3/stimNo139r0c0v2.3.jpg	 r	 2.044	 GoodTrial	 2.3	 bl
42	 6	 0	 x	 LineStimuli//2.3/stimNo160r0c0v2.3.jpg	 r	 1.640	 GoodTrial	 2.3	 bl
43	 6	 0	 x	 LineStimuli//2.3/stimNo152r0c0v2.3.jpg	 r	 1.983	 GoodTrial	 2.3	 bl
44	 6	 1	 left	 LineStimuli//2.3/stimNo86r8c9v2.3.jpg	 l	 1.675	 GoodTrial	 2.3	 bl
45	 6	 0	 x	 LineStimuli//2.3/stimNo141r0c0v2.3.jpg	 r	 2.021	 GoodTrial	 2.3	 bl
46	 6	 0	 x	 LineStimuli//2.3/stimNo159r0c0v2.3.jpg	 r	 1.905	 GoodTrial	 2.3	 bl
47	 6	 0	 x	 LineStimuli//2.3/stimNo153r0c0v2.3.jpg	 r	 1.665	 GoodTrial	 2.3	 bl
48	 6	 0	 x	 LineStimuli//2.3/stimNo150r0c0v2.3.jpg	 r	 1.800	 GoodTrial	 2.3	 bl
49	 6	 0	 x	 LineStimuli//2.3/stimNo158r0c0v2.3.jpg	 r	 1.728	 GoodTrial	 2.3	 bl
50	 6	 1	 right	 LineStimuli//2.3/stimNo93r4c16v2.3.jpg	 l	 1.496	 GoodTrial	 2.3	 bl
1	 7	 0	 x	 LineStimuli//4.3/stimNo145r0c0v4.3.jpg	 r	 1.805	 GoodTrial	 4.3	 bl
2	 7	 1	 right	 LineStimuli//4.3/stimNo91r9c13v4.3.jpg	 l	 1.663	 GoodTrial	 4.3	 bl
3	 7	 0	 x	 LineStimuli//4.3/stimNo139r0c0v4.3.jpg	 r	 1.769	 GoodTrial	 4.3	 bl
4	 7	 1	 right	 LineStimuli//4.3/stimNo96r4c19v4.3.jpg	 l	 1.663	 GoodTrial	 4.3	 bl
5	 7	 1	 left	 LineStimuli//4.3/stimNo101r5c5v4.3.jpg	 l	 1.501	 GoodTrial	 4.3	 bl
6	 7	 1	 right	 LineStimuli//4.3/stimNo102r10c19v4.3.jpg	 l	 1.487	 GoodTrial	 4.3	 bl
7	 7	 1	 left	 LineStimuli//4.3/stimNo104r15c2v4.3.jpg	 l	 1.519	 GoodTrial	 4.3	 bl
8	 7	 1	 left	 LineStimuli//4.3/stimNo105r14c6v4.3.jpg	 l	 1.463	 GoodTrial	 4.3	 bl
9	 7	 1	 left	 LineStimuli//4.3/stimNo108r5c8v4.3.jpg	 l	 1.435	 GoodTrial	 4.3	 bl
10	 7	 0	 x	 LineStimuli//4.3/stimNo131r0c0v4.3.jpg	 r	 1.574	 GoodTrial	 4.3	 bl
11	 7	 1	 left	 LineStimuli//4.3/stimNo95r11c9v4.3.jpg	 l	 1.496	 GoodTrial	 4.3	 bl
12	 7	 0	 x	 LineStimuli//4.3/stimNo129r0c0v4.3.jpg	 r	 1.686	 GoodTrial	 4.3	 bl
13	 7	 0	 x	 LineStimuli//4.3/stimNo142r0c0v4.3.jpg	 r	 1.816	 GoodTrial	 4.3	 bl
14	 7	 0	 x	 LineStimuli//4.3/stimNo124r0c0v4.3.jpg	 r	 1.654	 GoodTrial	 4.3	 bl
15	 7	 1	 left	 LineStimuli//4.3/stimNo88r10c3v4.3.jpg	 l	 1.560	 GoodTrial	 4.3	 bl
16	 7	 0	 x	 LineStimuli//4.3/stimNo122r0c0v4.3.jpg	 r	 1.640	 GoodTrial	 4.3	 bl
17	 7	 1	 left	 LineStimuli//4.3/stimNo113r11c7v4.3.jpg	 l	 1.541	 GoodTrial	 4.3	 bl
18	 7	 0	 x	 LineStimuli//4.3/stimNo147r0c0v4.3.jpg	 r	 1.666	 GoodTrial	 4.3	 bl
19	 7	 0	 x	 LineStimuli//4.3/stimNo157r0c0v4.3.jpg	 r	 1.584	 GoodTrial	 4.3	 bl
20	 7	 0	 x	 LineStimuli//4.3/stimNo138r0c0v4.3.jpg	 r	 1.632	 GoodTrial	 4.3	 bl
21	 7	 1	 left	 LineStimuli//4.3/stimNo100r8c3v4.3.jpg	 l	 1.535	 GoodTrial	 4.3	 bl
22	 7	 0	 x	 LineStimuli//4.3/stimNo126r0c0v4.3.jpg	 r	 1.523	 GoodTrial	 4.3	 bl
23	 7	 1	 left	 LineStimuli//4.3/stimNo90r10c4v4.3.jpg	 l	 1.695	 GoodTrial	 4.3	 bl
24	 7	 1	 left	 LineStimuli//4.3/stimNo85r3c5v4.3.jpg	 l	 1.618	 GoodTrial	 4.3	 bl
25	 7	 1	 right	 LineStimuli//4.3/stimNo119r12c17v4.3.jpg	 l	 1.615	 GoodTrial	 4.3	 bl
26	 7	 0	 x	 LineStimuli//4.3/stimNo150r0c0v4.3.jpg	 r	 1.663	 GoodTrial	 4.3	 bl
27	 7	 0	 x	 LineStimuli//4.3/stimNo158r0c0v4.3.jpg	 r	 1.603	 GoodTrial	 4.3	 bl
28	 7	 1	 right	 LineStimuli//4.3/stimNo112r10c16v4.3.jpg	 l	 1.727	 GoodTrial	 4.3	 bl
29	 7	 0	 x	 LineStimuli//4.3/stimNo153r0c0v4.3.jpg	 r	 1.635	 GoodTrial	 4.3	 bl
30	 7	 1	 left	 LineStimuli//4.3/stimNo107r2c8v4.3.jpg	 l	 1.590	 GoodTrial	 4.3	 bl
31	 7	 0	 x	 LineStimuli//4.3/stimNo155r0c0v4.3.jpg	 r	 1.634	 GoodTrial	 4.3	 bl
32	 7	 1	 right	 LineStimuli//4.3/stimNo99r14c18v4.3.jpg	 l	 1.507	 GoodTrial	 4.3	 bl
33	 7	 0	 x	 LineStimuli//4.3/stimNo127r0c0v4.3.jpg	 r	 1.640	 GoodTrial	 4.3	 bl
34	 7	 0	 x	 LineStimuli//4.3/stimNo148r0c0v4.3.jpg	 r	 1.617	 GoodTrial	 4.3	 bl
35	 7	 1	 left	 LineStimuli//4.3/stimNo93r9c9v4.3.jpg	 l	 1.671	 GoodTrial	 4.3	 bl
36	 7	 1	 right	 LineStimuli//4.3/stimNo118r11c13v4.3.jpg	 l	 1.615	 GoodTrial	 4.3	 bl
37	 7	 0	 x	 LineStimuli//4.3/stimNo143r0c0v4.3.jpg	 r	 1.635	 GoodTrial	 4.3	 bl
38	 7	 0	 x	 LineStimuli//4.3/stimNo133r0c0v4.3.jpg	 r	 1.648	 GoodTrial	 4.3	 bl
39	 7	 1	 right	 LineStimuli//4.3/stimNo120r8c18v4.3.jpg	 l	 1.546	 GoodTrial	 4.3	 bl
40	 7	 0	 x	 LineStimuli//4.3/stimNo152r0c0v4.3.jpg	 r	 1.632	 GoodTrial	 4.3	 bl
41	 7	 0	 x	 LineStimuli//4.3/stimNo125r0c0v4.3.jpg	 r	 1.630	 GoodTrial	 4.3	 bl
42	 7	 0	 x	 LineStimuli//4.3/stimNo132r0c0v4.3.jpg	 r	 1.574	 GoodTrial	 4.3	 bl
43	 7	 0	 x	 LineStimuli//4.3/stimNo121r0c0v4.3.jpg	 r	 1.640	 GoodTrial	 4.3	 bl
44	 7	 1	 right	 LineStimuli//4.3/stimNo117r10c21v4.3.jpg	 l	 1.659	 GoodTrial	 4.3	 bl
45	 7	 1	 left	 LineStimuli//4.3/stimNo83r4c2v4.3.jpg	 l	 1.649	 GoodTrial	 4.3	 bl
46	 7	 0	 x	 LineStimuli//4.3/stimNo144r0c0v4.3.jpg	 r	 1.889	 GoodTrial	 4.3	 bl
47	 7	 1	 right	 LineStimuli//4.3/stimNo82r7c18v4.3.jpg	 l	 1.539	 GoodTrial	 4.3	 bl
48	 7	 0	 x	 LineStimuli//4.3/stimNo160r0c0v4.3.jpg	 r	 1.646	 GoodTrial	 4.3	 bl
49	 7	 0	 x	 LineStimuli//4.3/stimNo140r0c0v4.3.jpg	 r	 1.650	 GoodTrial	 4.3	 bl
50	 7	 1	 right	 LineStimuli//4.3/stimNo89r3c17v4.3.jpg	 l	 1.575	 GoodTrial	 4.3	 bl
