Trial	Block	Target_pr	Target_side	Name	Key	RT	Message	Block_Type	Condition
1	 1	 1	 left	 LineStimuli//3.3/stimNo111r15c7v3.3.jpg	 l	 6.933	 GoodTrial	 3.3	 bl
2	 1	 0	 x	 LineStimuli//3.3/stimNo146r0c0v3.3.jpg	 r	 11.324	 GoodTrial	 3.3	 bl
3	 1	 0	 x	 LineStimuli//3.3/stimNo153r0c0v3.3.jpg	 r	 13.927	 GoodTrial	 3.3	 bl
4	 1	 0	 x	 LineStimuli//3.3/stimNo125r0c0v3.3.jpg	 l	 12.443	 GoodTrial	 3.3	 bl
5	 1	 1	 left	 LineStimuli//3.3/stimNo86r5c7v3.3.jpg	 r	 2.490	 GoodTrial	 3.3	 bl
6	 1	 0	 x	 LineStimuli//3.3/stimNo152r0c0v3.3.jpg	 l	 10.958	 GoodTrial	 3.3	 bl
7	 1	 1	 left	 LineStimuli//3.3/stimNo94r14c9v3.3.jpg	 r	 4.551	 GoodTrial	 3.3	 bl
8	 1	 1	 right	 LineStimuli//3.3/stimNo96r8c18v3.3.jpg	 l	 5.176	 GoodTrial	 3.3	 bl
9	 1	 0	 x	 LineStimuli//3.3/stimNo130r0c0v3.3.jpg	 r	 10.213	 GoodTrial	 3.3	 bl
10	 1	 0	 x	 LineStimuli//3.3/stimNo144r0c0v3.3.jpg	 r	 6.712	 GoodTrial	 3.3	 bl
11	 1	 1	 right	 LineStimuli//3.3/stimNo114r11c21v3.3.jpg	 l	 2.528	 GoodTrial	 3.3	 bl
12	 1	 0	 x	 LineStimuli//3.3/stimNo131r0c0v3.3.jpg	 r	 6.084	 GoodTrial	 3.3	 bl
13	 1	 0	 x	 LineStimuli//3.3/stimNo140r0c0v3.3.jpg	 r	 6.665	 GoodTrial	 3.3	 bl
14	 1	 1	 left	 LineStimuli//3.3/stimNo92r10c7v3.3.jpg	 l	 3.115	 GoodTrial	 3.3	 bl
15	 1	 0	 x	 LineStimuli//3.3/stimNo123r0c0v3.3.jpg	 r	 7.186	 GoodTrial	 3.3	 bl
16	 1	 0	 x	 LineStimuli//3.3/stimNo151r0c0v3.3.jpg	 r	 9.827	 GoodTrial	 3.3	 bl
17	 1	 1	 right	 LineStimuli//3.3/stimNo99r6c17v3.3.jpg	 l	 1.981	 GoodTrial	 3.3	 bl
18	 1	 0	 x	 LineStimuli//3.3/stimNo122r0c0v3.3.jpg	 r	 7.288	 GoodTrial	 3.3	 bl
19	 1	 0	 x	 LineStimuli//3.3/stimNo127r0c0v3.3.jpg	 r	 6.143	 GoodTrial	 3.3	 bl
20	 1	 0	 x	 LineStimuli//3.3/stimNo136r0c0v3.3.jpg	 r	 4.606	 GoodTrial	 3.3	 bl
21	 1	 0	 x	 LineStimuli//3.3/stimNo148r0c0v3.3.jpg	 r	 8.441	 GoodTrial	 3.3	 bl
22	 1	 0	 x	 LineStimuli//3.3/stimNo156r0c0v3.3.jpg	 r	 5.131	 GoodTrial	 3.3	 bl
23	 1	 1	 left	 LineStimuli//3.3/stimNo100r3c3v3.3.jpg	 l	 2.638	 GoodTrial	 3.3	 bl
24	 1	 1	 left	 LineStimuli//3.3/stimNo85r6c4v3.3.jpg	 l	 2.263	 GoodTrial	 3.3	 bl
25	 1	 0	 x	 LineStimuli//3.3/stimNo124r0c0v3.3.jpg	 r	 4.442	 GoodTrial	 3.3	 bl
26	 1	 1	 left	 LineStimuli//3.3/stimNo108r13c2v3.3.jpg	 l	 3.062	 GoodTrial	 3.3	 bl
27	 1	 1	 left	 LineStimuli//3.3/stimNo110r4c3v3.3.jpg	 l	 5.865	 GoodTrial	 3.3	 bl
28	 1	 1	 right	 LineStimuli//3.3/stimNo84r6c16v3.3.jpg	 l	 2.281	 GoodTrial	 3.3	 bl
29	 1	 1	 right	 LineStimuli//3.3/stimNo91r12c16v3.3.jpg	 l	 2.325	 GoodTrial	 3.3	 bl
30	 1	 1	 right	 LineStimuli//3.3/stimNo107r2c17v3.3.jpg	 l	 1.932	 GoodTrial	 3.3	 bl
31	 1	 0	 x	 LineStimuli//3.3/stimNo143r0c0v3.3.jpg	 r	 6.352	 GoodTrial	 3.3	 bl
32	 1	 1	 left	 LineStimuli//3.3/stimNo117r2c5v3.3.jpg	 l	 2.376	 GoodTrial	 3.3	 bl
33	 1	 1	 right	 LineStimuli//3.3/stimNo105r7c20v3.3.jpg	 x	 1.993	 GoodTrial	 3.3	 bl
34	 1	 0	 x	 LineStimuli//3.3/stimNo149r0c0v3.3.jpg	 l	 6.581	 GoodTrial	 3.3	 bl
35	 1	 1	 right	 LineStimuli//3.3/stimNo88r9c14v3.3.jpg	 l	 2.738	 GoodTrial	 3.3	 bl
36	 1	 1	 left	 LineStimuli//3.3/stimNo109r15c7v3.3.jpg	 l	 5.015	 GoodTrial	 3.3	 bl
37	 1	 1	 right	 LineStimuli//3.3/stimNo87r15c13v3.3.jpg	 l	 2.111	 GoodTrial	 3.3	 bl
38	 1	 0	 x	 LineStimuli//3.3/stimNo133r0c0v3.3.jpg	 r	 8.831	 GoodTrial	 3.3	 bl
39	 1	 0	 x	 LineStimuli//3.3/stimNo132r0c0v3.3.jpg	 r	 6.971	 GoodTrial	 3.3	 bl
40	 1	 0	 x	 LineStimuli//3.3/stimNo155r0c0v3.3.jpg	 r	 8.663	 GoodTrial	 3.3	 bl
41	 1	 1	 left	 LineStimuli//3.3/stimNo115r3c4v3.3.jpg	 l	 1.893	 GoodTrial	 3.3	 bl
42	 1	 0	 x	 LineStimuli//3.3/stimNo159r0c0v3.3.jpg	 r	 6.468	 GoodTrial	 3.3	 bl
43	 1	 0	 x	 LineStimuli//3.3/stimNo128r0c0v3.3.jpg	 r	 8.164	 GoodTrial	 3.3	 bl
44	 1	 0	 x	 LineStimuli//3.3/stimNo158r0c0v3.3.jpg	 r	 6.845	 GoodTrial	 3.3	 bl
45	 1	 1	 right	 LineStimuli//3.3/stimNo98r4c21v3.3.jpg	 l	 2.908	 GoodTrial	 3.3	 bl
46	 1	 0	 x	 LineStimuli//3.3/stimNo135r0c0v3.3.jpg	 r	 7.391	 GoodTrial	 3.3	 bl
47	 1	 0	 x	 LineStimuli//3.3/stimNo126r0c0v3.3.jpg	 r	 8.761	 GoodTrial	 3.3	 bl
48	 1	 0	 x	 LineStimuli//3.3/stimNo121r0c0v3.3.jpg	 r	 6.788	 GoodTrial	 3.3	 bl
49	 1	 1	 left	 LineStimuli//3.3/stimNo104r4c4v3.3.jpg	 l	 2.030	 GoodTrial	 3.3	 bl
50	 1	 0	 x	 LineStimuli//3.3/stimNo141r0c0v3.3.jpg	 r	 6.400	 GoodTrial	 3.3	 bl
1	 2	 1	 right	 LineStimuli//1.8/stimNo117r10c16v1.8.jpg	 l	 5.646	 GoodTrial	 1.8	 bl
2	 2	 0	 x	 LineStimuli//1.8/stimNo138r0c0v1.8.jpg	 r	 5.424	 GoodTrial	 1.8	 bl
3	 2	 1	 left	 LineStimuli//1.8/stimNo81r6c8v1.8.jpg	 r	 7.265	 GoodTrial	 1.8	 bl
4	 2	 0	 x	 LineStimuli//1.8/stimNo133r0c0v1.8.jpg	 r	 9.568	 GoodTrial	 1.8	 bl
5	 2	 1	 right	 LineStimuli//1.8/stimNo82r7c18v1.8.jpg	 l	 2.328	 GoodTrial	 1.8	 bl
6	 2	 0	 x	 LineStimuli//1.8/stimNo131r0c0v1.8.jpg	 r	 8.889	 GoodTrial	 1.8	 bl
7	 2	 1	 left	 LineStimuli//1.8/stimNo98r15c5v1.8.jpg	 l	 3.932	 GoodTrial	 1.8	 bl
8	 2	 0	 x	 LineStimuli//1.8/stimNo151r0c0v1.8.jpg	 r	 7.341	 GoodTrial	 1.8	 bl
9	 2	 1	 right	 LineStimuli//1.8/stimNo112r6c15v1.8.jpg	 l	 2.070	 GoodTrial	 1.8	 bl
10	 2	 0	 x	 LineStimuli//1.8/stimNo152r0c0v1.8.jpg	 r	 8.486	 GoodTrial	 1.8	 bl
11	 2	 1	 left	 LineStimuli//1.8/stimNo86r14c4v1.8.jpg	 l	 2.825	 GoodTrial	 1.8	 bl
12	 2	 0	 x	 LineStimuli//1.8/stimNo130r0c0v1.8.jpg	 r	 7.175	 GoodTrial	 1.8	 bl
13	 2	 1	 right	 LineStimuli//1.8/stimNo99r12c16v1.8.jpg	 x	 4.410	 GoodTrial	 1.8	 bl
14	 2	 0	 x	 LineStimuli//1.8/stimNo135r0c0v1.8.jpg	 r	 12.161	 GoodTrial	 1.8	 bl
15	 2	 0	 x	 LineStimuli//1.8/stimNo134r0c0v1.8.jpg	 r	 8.664	 GoodTrial	 1.8	 bl
16	 2	 0	 x	 LineStimuli//1.8/stimNo132r0c0v1.8.jpg	 r	 9.214	 GoodTrial	 1.8	 bl
17	 2	 0	 x	 LineStimuli//1.8/stimNo142r0c0v1.8.jpg	 r	 10.339	 GoodTrial	 1.8	 bl
18	 2	 0	 x	 LineStimuli//1.8/stimNo159r0c0v1.8.jpg	 r	 10.267	 GoodTrial	 1.8	 bl
19	 2	 1	 left	 LineStimuli//1.8/stimNo103r15c10v1.8.jpg	 r	 8.512	 GoodTrial	 1.8	 bl
20	 2	 1	 right	 LineStimuli//1.8/stimNo90r15c13v1.8.jpg	 x	 5.572	 GoodTrial	 1.8	 bl
21	 2	 0	 x	 LineStimuli//1.8/stimNo144r0c0v1.8.jpg	 r	 14.336	 GoodTrial	 1.8	 bl
22	 2	 1	 left	 LineStimuli//1.8/stimNo113r6c7v1.8.jpg	 l	 3.402	 GoodTrial	 1.8	 bl
23	 2	 0	 x	 LineStimuli//1.8/stimNo149r0c0v1.8.jpg	 r	 11.232	 GoodTrial	 1.8	 bl
24	 2	 0	 x	 LineStimuli//1.8/stimNo122r0c0v1.8.jpg	 r	 10.922	 GoodTrial	 1.8	 bl
25	 2	 1	 left	 LineStimuli//1.8/stimNo87r14c2v1.8.jpg	 l	 2.340	 GoodTrial	 1.8	 bl
26	 2	 0	 x	 LineStimuli//1.8/stimNo143r0c0v1.8.jpg	 r	 8.714	 GoodTrial	 1.8	 bl
27	 2	 1	 right	 LineStimuli//1.8/stimNo92r10c18v1.8.jpg	 r	 9.482	 GoodTrial	 1.8	 bl
28	 2	 0	 x	 LineStimuli//1.8/stimNo156r0c0v1.8.jpg	 r	 13.761	 GoodTrial	 1.8	 bl
29	 2	 0	 x	 LineStimuli//1.8/stimNo147r0c0v1.8.jpg	 r	 8.502	 GoodTrial	 1.8	 bl
30	 2	 1	 right	 LineStimuli//1.8/stimNo100r9c13v1.8.jpg	 l	 2.468	 GoodTrial	 1.8	 bl
31	 2	 0	 x	 LineStimuli//1.8/stimNo137r0c0v1.8.jpg	 r	 6.753	 GoodTrial	 1.8	 bl
32	 2	 0	 x	 LineStimuli//1.8/stimNo158r0c0v1.8.jpg	 r	 10.087	 GoodTrial	 1.8	 bl
33	 2	 1	 left	 LineStimuli//1.8/stimNo95r4c9v1.8.jpg	 l	 4.458	 GoodTrial	 1.8	 bl
34	 2	 1	 right	 LineStimuli//1.8/stimNo101r4c13v1.8.jpg	 l	 2.334	 GoodTrial	 1.8	 bl
35	 2	 1	 right	 LineStimuli//1.8/stimNo83r6c13v1.8.jpg	 l	 2.048	 GoodTrial	 1.8	 bl
36	 2	 0	 x	 LineStimuli//1.8/stimNo150r0c0v1.8.jpg	 r	 5.570	 GoodTrial	 1.8	 bl
37	 2	 1	 right	 LineStimuli//1.8/stimNo118r11c15v1.8.jpg	 l	 3.918	 GoodTrial	 1.8	 bl
38	 2	 1	 left	 LineStimuli//1.8/stimNo89r11c6v1.8.jpg	 l	 2.809	 GoodTrial	 1.8	 bl
39	 2	 0	 x	 LineStimuli//1.8/stimNo124r0c0v1.8.jpg	 r	 5.472	 GoodTrial	 1.8	 bl
40	 2	 0	 x	 LineStimuli//1.8/stimNo140r0c0v1.8.jpg	 r	 6.493	 GoodTrial	 1.8	 bl
41	 2	 1	 right	 LineStimuli//1.8/stimNo108r9c21v1.8.jpg	 r	 6.766	 GoodTrial	 1.8	 bl
42	 2	 0	 x	 LineStimuli//1.8/stimNo146r0c0v1.8.jpg	 r	 11.885	 GoodTrial	 1.8	 bl
43	 2	 0	 x	 LineStimuli//1.8/stimNo125r0c0v1.8.jpg	 r	 17.319	 GoodTrial	 1.8	 bl
44	 2	 1	 right	 LineStimuli//1.8/stimNo102r14c17v1.8.jpg	 l	 2.916	 GoodTrial	 1.8	 bl
45	 2	 0	 x	 LineStimuli//1.8/stimNo136r0c0v1.8.jpg	 r	 8.951	 GoodTrial	 1.8	 bl
46	 2	 0	 x	 LineStimuli//1.8/stimNo153r0c0v1.8.jpg	 r	 7.801	 GoodTrial	 1.8	 bl
47	 2	 0	 x	 LineStimuli//1.8/stimNo148r0c0v1.8.jpg	 r	 6.583	 GoodTrial	 1.8	 bl
48	 2	 1	 left	 LineStimuli//1.8/stimNo115r5c9v1.8.jpg	 l	 3.704	 GoodTrial	 1.8	 bl
49	 2	 1	 right	 LineStimuli//1.8/stimNo104r3c21v1.8.jpg	 l	 5.488	 GoodTrial	 1.8	 bl
50	 2	 1	 left	 LineStimuli//1.8/stimNo116r4c7v1.8.jpg	 l	 2.886	 GoodTrial	 1.8	 bl
1	 3	 0	 x	 LineStimuli//4.3/stimNo160r0c0v4.3.jpg	 r	 7.517	 GoodTrial	 4.3	 bl
2	 3	 0	 x	 LineStimuli//4.3/stimNo130r0c0v4.3.jpg	 r	 5.072	 GoodTrial	 4.3	 bl
3	 3	 1	 right	 LineStimuli//4.3/stimNo84r15c20v4.3.jpg	 l	 2.458	 GoodTrial	 4.3	 bl
4	 3	 1	 right	 LineStimuli//4.3/stimNo92r2c20v4.3.jpg	 l	 2.978	 GoodTrial	 4.3	 bl
5	 3	 0	 x	 LineStimuli//4.3/stimNo158r0c0v4.3.jpg	 r	 6.017	 GoodTrial	 4.3	 bl
6	 3	 0	 x	 LineStimuli//4.3/stimNo127r0c0v4.3.jpg	 r	 5.416	 GoodTrial	 4.3	 bl
7	 3	 0	 x	 LineStimuli//4.3/stimNo124r0c0v4.3.jpg	 r	 4.912	 GoodTrial	 4.3	 bl
8	 3	 0	 x	 LineStimuli//4.3/stimNo155r0c0v4.3.jpg	 r	 5.686	 GoodTrial	 4.3	 bl
9	 3	 0	 x	 LineStimuli//4.3/stimNo150r0c0v4.3.jpg	 r	 5.032	 GoodTrial	 4.3	 bl
10	 3	 1	 right	 LineStimuli//4.3/stimNo116r5c13v4.3.jpg	 l	 2.380	 GoodTrial	 4.3	 bl
11	 3	 0	 x	 LineStimuli//4.3/stimNo142r0c0v4.3.jpg	 r	 5.707	 GoodTrial	 4.3	 bl
12	 3	 1	 left	 LineStimuli//4.3/stimNo105r14c6v4.3.jpg	 l	 2.291	 GoodTrial	 4.3	 bl
13	 3	 0	 x	 LineStimuli//4.3/stimNo154r0c0v4.3.jpg	 r	 4.209	 GoodTrial	 4.3	 bl
14	 3	 1	 left	 LineStimuli//4.3/stimNo93r9c9v4.3.jpg	 l	 1.908	 GoodTrial	 4.3	 bl
15	 3	 1	 right	 LineStimuli//4.3/stimNo119r12c17v4.3.jpg	 l	 2.157	 GoodTrial	 4.3	 bl
16	 3	 0	 x	 LineStimuli//4.3/stimNo151r0c0v4.3.jpg	 r	 4.128	 GoodTrial	 4.3	 bl
17	 3	 1	 right	 LineStimuli//4.3/stimNo94r12c13v4.3.jpg	 l	 2.000	 GoodTrial	 4.3	 bl
18	 3	 0	 x	 LineStimuli//4.3/stimNo126r0c0v4.3.jpg	 r	 6.274	 GoodTrial	 4.3	 bl
19	 3	 1	 left	 LineStimuli//4.3/stimNo108r5c8v4.3.jpg	 l	 1.687	 GoodTrial	 4.3	 bl
20	 3	 1	 left	 LineStimuli//4.3/stimNo111r10c9v4.3.jpg	 l	 2.008	 GoodTrial	 4.3	 bl
21	 3	 0	 x	 LineStimuli//4.3/stimNo135r0c0v4.3.jpg	 r	 6.656	 GoodTrial	 4.3	 bl
22	 3	 1	 left	 LineStimuli//4.3/stimNo103r10c4v4.3.jpg	 l	 1.973	 GoodTrial	 4.3	 bl
23	 3	 0	 x	 LineStimuli//4.3/stimNo148r0c0v4.3.jpg	 r	 4.458	 GoodTrial	 4.3	 bl
24	 3	 1	 left	 LineStimuli//4.3/stimNo107r2c8v4.3.jpg	 l	 1.880	 GoodTrial	 4.3	 bl
25	 3	 1	 left	 LineStimuli//4.3/stimNo87r3c5v4.3.jpg	 l	 1.664	 GoodTrial	 4.3	 bl
26	 3	 1	 right	 LineStimuli//4.3/stimNo114r10c15v4.3.jpg	 l	 1.637	 GoodTrial	 4.3	 bl
27	 3	 0	 x	 LineStimuli//4.3/stimNo128r0c0v4.3.jpg	 r	 3.783	 GoodTrial	 4.3	 bl
28	 3	 0	 x	 LineStimuli//4.3/stimNo143r0c0v4.3.jpg	 r	 3.216	 GoodTrial	 4.3	 bl
29	 3	 0	 x	 LineStimuli//4.3/stimNo122r0c0v4.3.jpg	 r	 4.940	 GoodTrial	 4.3	 bl
30	 3	 0	 x	 LineStimuli//4.3/stimNo147r0c0v4.3.jpg	 r	 4.131	 GoodTrial	 4.3	 bl
31	 3	 1	 right	 LineStimuli//4.3/stimNo96r4c19v4.3.jpg	 l	 2.300	 GoodTrial	 4.3	 bl
32	 3	 0	 x	 LineStimuli//4.3/stimNo136r0c0v4.3.jpg	 r	 5.256	 GoodTrial	 4.3	 bl
33	 3	 1	 left	 LineStimuli//4.3/stimNo88r10c3v4.3.jpg	 l	 1.985	 GoodTrial	 4.3	 bl
34	 3	 0	 x	 LineStimuli//4.3/stimNo133r0c0v4.3.jpg	 r	 7.145	 GoodTrial	 4.3	 bl
35	 3	 1	 left	 LineStimuli//4.3/stimNo95r11c9v4.3.jpg	 l	 1.726	 GoodTrial	 4.3	 bl
36	 3	 0	 x	 LineStimuli//4.3/stimNo139r0c0v4.3.jpg	 r	 4.205	 GoodTrial	 4.3	 bl
37	 3	 0	 x	 LineStimuli//4.3/stimNo156r0c0v4.3.jpg	 r	 4.577	 GoodTrial	 4.3	 bl
38	 3	 0	 x	 LineStimuli//4.3/stimNo129r0c0v4.3.jpg	 r	 4.384	 GoodTrial	 4.3	 bl
39	 3	 1	 left	 LineStimuli//4.3/stimNo106r8c2v4.3.jpg	 l	 1.803	 GoodTrial	 4.3	 bl
40	 3	 1	 right	 LineStimuli//4.3/stimNo99r14c18v4.3.jpg	 l	 1.837	 GoodTrial	 4.3	 bl
41	 3	 0	 x	 LineStimuli//4.3/stimNo123r0c0v4.3.jpg	 r	 3.111	 GoodTrial	 4.3	 bl
42	 3	 1	 right	 LineStimuli//4.3/stimNo112r10c16v4.3.jpg	 l	 1.960	 GoodTrial	 4.3	 bl
43	 3	 1	 left	 LineStimuli//4.3/stimNo98r3c8v4.3.jpg	 l	 1.758	 GoodTrial	 4.3	 bl
44	 3	 1	 left	 LineStimuli//4.3/stimNo85r3c5v4.3.jpg	 l	 1.564	 GoodTrial	 4.3	 bl
45	 3	 1	 right	 LineStimuli//4.3/stimNo81r10c14v4.3.jpg	 l	 1.539	 GoodTrial	 4.3	 bl
46	 3	 0	 x	 LineStimuli//4.3/stimNo121r0c0v4.3.jpg	 r	 3.433	 GoodTrial	 4.3	 bl
47	 3	 0	 x	 LineStimuli//4.3/stimNo141r0c0v4.3.jpg	 r	 2.888	 GoodTrial	 4.3	 bl
48	 3	 1	 left	 LineStimuli//4.3/stimNo104r15c2v4.3.jpg	 l	 2.009	 GoodTrial	 4.3	 bl
49	 3	 1	 left	 LineStimuli//4.3/stimNo113r11c7v4.3.jpg	 l	 1.645	 GoodTrial	 4.3	 bl
50	 3	 0	 x	 LineStimuli//4.3/stimNo125r0c0v4.3.jpg	 r	 3.245	 GoodTrial	 4.3	 bl
1	 4	 0	 x	 LineStimuli//2.3/stimNo146r0c0v2.3.jpg	 r	 5.546	 GoodTrial	 2.3	 bl
2	 4	 1	 right	 LineStimuli//2.3/stimNo90r14c21v2.3.jpg	 l	 2.426	 GoodTrial	 2.3	 bl
3	 4	 0	 x	 LineStimuli//2.3/stimNo138r0c0v2.3.jpg	 r	 5.895	 GoodTrial	 2.3	 bl
4	 4	 0	 x	 LineStimuli//2.3/stimNo160r0c0v2.3.jpg	 r	 5.394	 GoodTrial	 2.3	 bl
5	 4	 1	 left	 LineStimuli//2.3/stimNo81r4c3v2.3.jpg	 l	 1.816	 GoodTrial	 2.3	 bl
6	 4	 0	 x	 LineStimuli//2.3/stimNo133r0c0v2.3.jpg	 r	 6.535	 GoodTrial	 2.3	 bl
7	 4	 0	 x	 LineStimuli//2.3/stimNo129r0c0v2.3.jpg	 r	 4.104	 GoodTrial	 2.3	 bl
8	 4	 1	 left	 LineStimuli//2.3/stimNo96r3c3v2.3.jpg	 l	 1.745	 GoodTrial	 2.3	 bl
9	 4	 1	 left	 LineStimuli//2.3/stimNo104r2c4v2.3.jpg	 l	 1.610	 GoodTrial	 2.3	 bl
10	 4	 1	 right	 LineStimuli//2.3/stimNo93r4c16v2.3.jpg	 l	 1.808	 GoodTrial	 2.3	 bl
11	 4	 1	 left	 LineStimuli//2.3/stimNo115r7c3v2.3.jpg	 l	 1.769	 GoodTrial	 2.3	 bl
12	 4	 1	 right	 LineStimuli//2.3/stimNo99r2c13v2.3.jpg	 l	 1.958	 GoodTrial	 2.3	 bl
13	 4	 0	 x	 LineStimuli//2.3/stimNo141r0c0v2.3.jpg	 r	 5.709	 GoodTrial	 2.3	 bl
14	 4	 0	 x	 LineStimuli//2.3/stimNo131r0c0v2.3.jpg	 r	 4.170	 GoodTrial	 2.3	 bl
15	 4	 0	 x	 LineStimuli//2.3/stimNo127r0c0v2.3.jpg	 r	 5.417	 GoodTrial	 2.3	 bl
16	 4	 1	 right	 LineStimuli//2.3/stimNo105r14c14v2.3.jpg	 l	 2.489	 GoodTrial	 2.3	 bl
17	 4	 1	 left	 LineStimuli//2.3/stimNo112r3c2v2.3.jpg	 l	 1.656	 GoodTrial	 2.3	 bl
18	 4	 0	 x	 LineStimuli//2.3/stimNo123r0c0v2.3.jpg	 r	 3.483	 GoodTrial	 2.3	 bl
19	 4	 0	 x	 LineStimuli//2.3/stimNo132r0c0v2.3.jpg	 r	 4.258	 GoodTrial	 2.3	 bl
20	 4	 0	 x	 LineStimuli//2.3/stimNo159r0c0v2.3.jpg	 r	 2.968	 GoodTrial	 2.3	 bl
21	 4	 0	 x	 LineStimuli//2.3/stimNo148r0c0v2.3.jpg	 r	 4.448	 GoodTrial	 2.3	 bl
22	 4	 1	 right	 LineStimuli//2.3/stimNo111r11c21v2.3.jpg	 l	 1.985	 GoodTrial	 2.3	 bl
23	 4	 0	 x	 LineStimuli//2.3/stimNo152r0c0v2.3.jpg	 r	 7.262	 GoodTrial	 2.3	 bl
24	 4	 0	 x	 LineStimuli//2.3/stimNo147r0c0v2.3.jpg	 x	 0.520	 EARLY_RESPONSE	 2.3	 bl
25	 4	 0	 x	 LineStimuli//2.3/stimNo151r0c0v2.3.jpg	 r	 6.340	 GoodTrial	 2.3	 bl
26	 4	 1	 right	 LineStimuli//2.3/stimNo101r8c14v2.3.jpg	 l	 1.763	 GoodTrial	 2.3	 bl
27	 4	 1	 left	 LineStimuli//2.3/stimNo82r12c4v2.3.jpg	 l	 2.654	 GoodTrial	 2.3	 bl
28	 4	 1	 right	 LineStimuli//2.3/stimNo107r11c15v2.3.jpg	 l	 1.982	 GoodTrial	 2.3	 bl
29	 4	 0	 x	 LineStimuli//2.3/stimNo134r0c0v2.3.jpg	 r	 3.316	 GoodTrial	 2.3	 bl
30	 4	 1	 left	 LineStimuli//2.3/stimNo88r15c2v2.3.jpg	 l	 2.469	 GoodTrial	 2.3	 bl
31	 4	 1	 left	 LineStimuli//2.3/stimNo95r13c9v2.3.jpg	 l	 2.777	 GoodTrial	 2.3	 bl
32	 4	 0	 x	 LineStimuli//2.3/stimNo140r0c0v2.3.jpg	 r	 3.216	 GoodTrial	 2.3	 bl
33	 4	 0	 x	 LineStimuli//2.3/stimNo149r0c0v2.3.jpg	 r	 4.392	 GoodTrial	 2.3	 bl
34	 4	 1	 left	 LineStimuli//2.3/stimNo108r15c6v2.3.jpg	 l	 2.278	 GoodTrial	 2.3	 bl
35	 4	 1	 right	 LineStimuli//2.3/stimNo92r10c17v2.3.jpg	 l	 1.673	 GoodTrial	 2.3	 bl
36	 4	 1	 right	 LineStimuli//2.3/stimNo102r6c18v2.3.jpg	 l	 1.665	 GoodTrial	 2.3	 bl
37	 4	 1	 right	 LineStimuli//2.3/stimNo98r12c21v2.3.jpg	 l	 1.875	 GoodTrial	 2.3	 bl
38	 4	 0	 x	 LineStimuli//2.3/stimNo156r0c0v2.3.jpg	 r	 3.741	 GoodTrial	 2.3	 bl
39	 4	 1	 left	 LineStimuli//2.3/stimNo119r3c2v2.3.jpg	 l	 1.832	 GoodTrial	 2.3	 bl
40	 4	 1	 right	 LineStimuli//2.3/stimNo84r15c14v2.3.jpg	 l	 2.123	 GoodTrial	 2.3	 bl
41	 4	 1	 right	 LineStimuli//2.3/stimNo120r4c17v2.3.jpg	 l	 1.817	 GoodTrial	 2.3	 bl
42	 4	 1	 left	 LineStimuli//2.3/stimNo116r2c2v2.3.jpg	 l	 2.025	 GoodTrial	 2.3	 bl
43	 4	 1	 left	 LineStimuli//2.3/stimNo100r8c6v2.3.jpg	 l	 1.840	 GoodTrial	 2.3	 bl
44	 4	 1	 right	 LineStimuli//2.3/stimNo103r11c21v2.3.jpg	 l	 1.639	 GoodTrial	 2.3	 bl
45	 4	 0	 x	 LineStimuli//2.3/stimNo153r0c0v2.3.jpg	 r	 3.048	 GoodTrial	 2.3	 bl
46	 4	 0	 x	 LineStimuli//2.3/stimNo130r0c0v2.3.jpg	 r	 3.615	 GoodTrial	 2.3	 bl
47	 4	 0	 x	 LineStimuli//2.3/stimNo154r0c0v2.3.jpg	 r	 3.305	 GoodTrial	 2.3	 bl
48	 4	 0	 x	 LineStimuli//2.3/stimNo143r0c0v2.3.jpg	 r	 4.103	 GoodTrial	 2.3	 bl
49	 4	 1	 right	 LineStimuli//2.3/stimNo89r8c21v2.3.jpg	 l	 1.768	 GoodTrial	 2.3	 bl
50	 4	 1	 left	 LineStimuli//2.3/stimNo86r8c9v2.3.jpg	 l	 1.995	 GoodTrial	 2.3	 bl
1	 5	 0	 x	 LineStimuli//3.8/stimNo139r0c0v3.8.jpg	 r	 4.245	 GoodTrial	 3.8	 bl
2	 5	 0	 x	 LineStimuli//3.8/stimNo136r0c0v3.8.jpg	 r	 2.602	 GoodTrial	 3.8	 bl
3	 5	 1	 left	 LineStimuli//3.8/stimNo108r3c6v3.8.jpg	 l	 2.025	 GoodTrial	 3.8	 bl
4	 5	 1	 right	 LineStimuli//3.8/stimNo99r2c13v3.8.jpg	 l	 1.960	 GoodTrial	 3.8	 bl
5	 5	 1	 right	 LineStimuli//3.8/stimNo96r2c13v3.8.jpg	 l	 1.633	 GoodTrial	 3.8	 bl
6	 5	 1	 right	 LineStimuli//3.8/stimNo112r12c16v3.8.jpg	 l	 1.641	 GoodTrial	 3.8	 bl
7	 5	 0	 x	 LineStimuli//3.8/stimNo142r0c0v3.8.jpg	 r	 2.216	 GoodTrial	 3.8	 bl
8	 5	 1	 left	 LineStimuli//3.8/stimNo118r4c8v3.8.jpg	 l	 1.627	 GoodTrial	 3.8	 bl
9	 5	 1	 right	 LineStimuli//3.8/stimNo95r5c21v3.8.jpg	 l	 1.678	 GoodTrial	 3.8	 bl
10	 5	 1	 right	 LineStimuli//3.8/stimNo84r9c19v3.8.jpg	 l	 1.703	 GoodTrial	 3.8	 bl
11	 5	 1	 right	 LineStimuli//3.8/stimNo102r10c17v3.8.jpg	 l	 1.639	 GoodTrial	 3.8	 bl
12	 5	 0	 x	 LineStimuli//3.8/stimNo150r0c0v3.8.jpg	 r	 2.827	 GoodTrial	 3.8	 bl
13	 5	 1	 left	 LineStimuli//3.8/stimNo113r14c9v3.8.jpg	 l	 1.787	 GoodTrial	 3.8	 bl
14	 5	 0	 x	 LineStimuli//3.8/stimNo149r0c0v3.8.jpg	 r	 2.309	 GoodTrial	 3.8	 bl
15	 5	 1	 left	 LineStimuli//3.8/stimNo103r11c7v3.8.jpg	 l	 1.724	 GoodTrial	 3.8	 bl
16	 5	 1	 left	 LineStimuli//3.8/stimNo105r2c6v3.8.jpg	 l	 1.905	 GoodTrial	 3.8	 bl
17	 5	 0	 x	 LineStimuli//3.8/stimNo127r0c0v3.8.jpg	 r	 2.730	 GoodTrial	 3.8	 bl
18	 5	 0	 x	 LineStimuli//3.8/stimNo155r0c0v3.8.jpg	 r	 2.160	 GoodTrial	 3.8	 bl
19	 5	 0	 x	 LineStimuli//3.8/stimNo129r0c0v3.8.jpg	 r	 2.986	 GoodTrial	 3.8	 bl
20	 5	 1	 right	 LineStimuli//3.8/stimNo117r6c17v3.8.jpg	 l	 1.796	 GoodTrial	 3.8	 bl
21	 5	 0	 x	 LineStimuli//3.8/stimNo134r0c0v3.8.jpg	 r	 2.343	 GoodTrial	 3.8	 bl
22	 5	 0	 x	 LineStimuli//3.8/stimNo126r0c0v3.8.jpg	 r	 2.058	 GoodTrial	 3.8	 bl
23	 5	 0	 x	 LineStimuli//3.8/stimNo153r0c0v3.8.jpg	 r	 2.543	 GoodTrial	 3.8	 bl
24	 5	 1	 left	 LineStimuli//3.8/stimNo98r2c9v3.8.jpg	 l	 1.757	 GoodTrial	 3.8	 bl
25	 5	 0	 x	 LineStimuli//3.8/stimNo148r0c0v3.8.jpg	 r	 1.894	 GoodTrial	 3.8	 bl
26	 5	 1	 left	 LineStimuli//3.8/stimNo93r8c2v3.8.jpg	 l	 1.904	 GoodTrial	 3.8	 bl
27	 5	 0	 x	 LineStimuli//3.8/stimNo140r0c0v3.8.jpg	 r	 2.525	 GoodTrial	 3.8	 bl
28	 5	 0	 x	 LineStimuli//3.8/stimNo146r0c0v3.8.jpg	 r	 2.629	 GoodTrial	 3.8	 bl
29	 5	 1	 right	 LineStimuli//3.8/stimNo91r10c16v3.8.jpg	 l	 1.754	 GoodTrial	 3.8	 bl
30	 5	 0	 x	 LineStimuli//3.8/stimNo144r0c0v3.8.jpg	 r	 2.176	 GoodTrial	 3.8	 bl
31	 5	 0	 x	 LineStimuli//3.8/stimNo124r0c0v3.8.jpg	 r	 2.558	 GoodTrial	 3.8	 bl
32	 5	 1	 right	 LineStimuli//3.8/stimNo114r10c14v3.8.jpg	 l	 2.069	 GoodTrial	 3.8	 bl
33	 5	 0	 x	 LineStimuli//3.8/stimNo156r0c0v3.8.jpg	 r	 2.389	 GoodTrial	 3.8	 bl
34	 5	 1	 right	 LineStimuli//3.8/stimNo107r9c18v3.8.jpg	 l	 1.881	 GoodTrial	 3.8	 bl
35	 5	 0	 x	 LineStimuli//3.8/stimNo128r0c0v3.8.jpg	 r	 1.956	 GoodTrial	 3.8	 bl
36	 5	 0	 x	 LineStimuli//3.8/stimNo158r0c0v3.8.jpg	 r	 2.056	 GoodTrial	 3.8	 bl
37	 5	 1	 left	 LineStimuli//3.8/stimNo116r7c3v3.8.jpg	 l	 2.063	 GoodTrial	 3.8	 bl
38	 5	 1	 left	 LineStimuli//3.8/stimNo109r11c8v3.8.jpg	 l	 1.619	 GoodTrial	 3.8	 bl
39	 5	 1	 left	 LineStimuli//3.8/stimNo97r15c9v3.8.jpg	 l	 2.371	 GoodTrial	 3.8	 bl
40	 5	 0	 x	 LineStimuli//3.8/stimNo154r0c0v3.8.jpg	 r	 2.268	 GoodTrial	 3.8	 bl
41	 5	 0	 x	 LineStimuli//3.8/stimNo132r0c0v3.8.jpg	 r	 2.219	 GoodTrial	 3.8	 bl
42	 5	 1	 right	 LineStimuli//3.8/stimNo81r3c21v3.8.jpg	 l	 2.048	 GoodTrial	 3.8	 bl
43	 5	 1	 right	 LineStimuli//3.8/stimNo88r10c17v3.8.jpg	 l	 1.623	 GoodTrial	 3.8	 bl
44	 5	 0	 x	 LineStimuli//3.8/stimNo131r0c0v3.8.jpg	 r	 2.325	 GoodTrial	 3.8	 bl
45	 5	 1	 left	 LineStimuli//3.8/stimNo115r14c10v3.8.jpg	 l	 2.354	 GoodTrial	 3.8	 bl
46	 5	 1	 left	 LineStimuli//3.8/stimNo89r10c7v3.8.jpg	 l	 1.614	 GoodTrial	 3.8	 bl
47	 5	 1	 right	 LineStimuli//3.8/stimNo85r3c13v3.8.jpg	 l	 1.765	 GoodTrial	 3.8	 bl
48	 5	 0	 x	 LineStimuli//3.8/stimNo137r0c0v3.8.jpg	 r	 2.546	 GoodTrial	 3.8	 bl
49	 5	 1	 left	 LineStimuli//3.8/stimNo100r13c6v3.8.jpg	 l	 1.742	 GoodTrial	 3.8	 bl
50	 5	 0	 x	 LineStimuli//3.8/stimNo160r0c0v3.8.jpg	 r	 2.811	 GoodTrial	 3.8	 bl
1	 6	 1	 right	 LineStimuli//2.8/stimNo106r13c20v2.8.jpg	 l	 3.022	 GoodTrial	 2.8	 bl
2	 6	 1	 right	 LineStimuli//2.8/stimNo109r6c18v2.8.jpg	 l	 1.601	 GoodTrial	 2.8	 bl
3	 6	 0	 x	 LineStimuli//2.8/stimNo160r0c0v2.8.jpg	 r	 2.513	 GoodTrial	 2.8	 bl
4	 6	 1	 right	 LineStimuli//2.8/stimNo103r3c19v2.8.jpg	 l	 1.736	 GoodTrial	 2.8	 bl
5	 6	 0	 x	 LineStimuli//2.8/stimNo159r0c0v2.8.jpg	 r	 2.650	 GoodTrial	 2.8	 bl
6	 6	 0	 x	 LineStimuli//2.8/stimNo148r0c0v2.8.jpg	 r	 3.011	 GoodTrial	 2.8	 bl
7	 6	 0	 x	 LineStimuli//2.8/stimNo133r0c0v2.8.jpg	 r	 2.620	 GoodTrial	 2.8	 bl
8	 6	 0	 x	 LineStimuli//2.8/stimNo121r0c0v2.8.jpg	 r	 2.583	 GoodTrial	 2.8	 bl
9	 6	 1	 right	 LineStimuli//2.8/stimNo117r11c17v2.8.jpg	 l	 2.035	 GoodTrial	 2.8	 bl
10	 6	 1	 left	 LineStimuli//2.8/stimNo86r15c6v2.8.jpg	 l	 2.025	 GoodTrial	 2.8	 bl
11	 6	 1	 left	 LineStimuli//2.8/stimNo98r15c2v2.8.jpg	 l	 1.869	 GoodTrial	 2.8	 bl
12	 6	 0	 x	 LineStimuli//2.8/stimNo139r0c0v2.8.jpg	 r	 5.479	 GoodTrial	 2.8	 bl
13	 6	 0	 x	 LineStimuli//2.8/stimNo136r0c0v2.8.jpg	 r	 3.017	 GoodTrial	 2.8	 bl
14	 6	 0	 x	 LineStimuli//2.8/stimNo124r0c0v2.8.jpg	 r	 3.125	 GoodTrial	 2.8	 bl
15	 6	 1	 right	 LineStimuli//2.8/stimNo81r8c14v2.8.jpg	 l	 1.608	 GoodTrial	 2.8	 bl
16	 6	 1	 left	 LineStimuli//2.8/stimNo108r13c6v2.8.jpg	 l	 2.103	 GoodTrial	 2.8	 bl
17	 6	 1	 left	 LineStimuli//2.8/stimNo104r8c6v2.8.jpg	 l	 1.711	 GoodTrial	 2.8	 bl
18	 6	 0	 x	 LineStimuli//2.8/stimNo142r0c0v2.8.jpg	 r	 2.115	 GoodTrial	 2.8	 bl
19	 6	 0	 x	 LineStimuli//2.8/stimNo150r0c0v2.8.jpg	 r	 3.504	 GoodTrial	 2.8	 bl
20	 6	 0	 x	 LineStimuli//2.8/stimNo140r0c0v2.8.jpg	 r	 3.281	 GoodTrial	 2.8	 bl
21	 6	 1	 left	 LineStimuli//2.8/stimNo107r5c6v2.8.jpg	 l	 1.792	 GoodTrial	 2.8	 bl
22	 6	 1	 left	 LineStimuli//2.8/stimNo119r8c5v2.8.jpg	 l	 1.968	 GoodTrial	 2.8	 bl
23	 6	 1	 left	 LineStimuli//2.8/stimNo91r2c3v2.8.jpg	 l	 2.775	 GoodTrial	 2.8	 bl
24	 6	 0	 x	 LineStimuli//2.8/stimNo131r0c0v2.8.jpg	 r	 2.654	 GoodTrial	 2.8	 bl
25	 6	 1	 right	 LineStimuli//2.8/stimNo93r9c20v2.8.jpg	 l	 1.929	 GoodTrial	 2.8	 bl
26	 6	 0	 x	 LineStimuli//2.8/stimNo129r0c0v2.8.jpg	 r	 2.456	 GoodTrial	 2.8	 bl
27	 6	 0	 x	 LineStimuli//2.8/stimNo125r0c0v2.8.jpg	 r	 4.624	 GoodTrial	 2.8	 bl
28	 6	 0	 x	 LineStimuli//2.8/stimNo154r0c0v2.8.jpg	 r	 3.276	 GoodTrial	 2.8	 bl
29	 6	 0	 x	 LineStimuli//2.8/stimNo156r0c0v2.8.jpg	 r	 2.896	 GoodTrial	 2.8	 bl
30	 6	 0	 x	 LineStimuli//2.8/stimNo145r0c0v2.8.jpg	 r	 3.184	 GoodTrial	 2.8	 bl
31	 6	 0	 x	 LineStimuli//2.8/stimNo137r0c0v2.8.jpg	 r	 2.813	 GoodTrial	 2.8	 bl
32	 6	 1	 left	 LineStimuli//2.8/stimNo97r11c4v2.8.jpg	 l	 1.836	 GoodTrial	 2.8	 bl
33	 6	 1	 right	 LineStimuli//2.8/stimNo115r9c14v2.8.jpg	 l	 2.034	 GoodTrial	 2.8	 bl
34	 6	 1	 right	 LineStimuli//2.8/stimNo100r8c13v2.8.jpg	 l	 1.649	 GoodTrial	 2.8	 bl
35	 6	 0	 x	 LineStimuli//2.8/stimNo141r0c0v2.8.jpg	 r	 3.635	 GoodTrial	 2.8	 bl
36	 6	 0	 x	 LineStimuli//2.8/stimNo134r0c0v2.8.jpg	 r	 2.807	 GoodTrial	 2.8	 bl
37	 6	 0	 x	 LineStimuli//2.8/stimNo138r0c0v2.8.jpg	 r	 3.731	 GoodTrial	 2.8	 bl
38	 6	 1	 left	 LineStimuli//2.8/stimNo87r11c8v2.8.jpg	 l	 2.565	 GoodTrial	 2.8	 bl
39	 6	 0	 x	 LineStimuli//2.8/stimNo144r0c0v2.8.jpg	 r	 2.452	 GoodTrial	 2.8	 bl
40	 6	 0	 x	 LineStimuli//2.8/stimNo135r0c0v2.8.jpg	 r	 2.731	 GoodTrial	 2.8	 bl
41	 6	 1	 right	 LineStimuli//2.8/stimNo120r8c20v2.8.jpg	 l	 1.837	 GoodTrial	 2.8	 bl
42	 6	 1	 left	 LineStimuli//2.8/stimNo88r15c3v2.8.jpg	 l	 2.224	 GoodTrial	 2.8	 bl
43	 6	 0	 x	 LineStimuli//2.8/stimNo149r0c0v2.8.jpg	 r	 2.445	 GoodTrial	 2.8	 bl
44	 6	 1	 left	 LineStimuli//2.8/stimNo94r13c7v2.8.jpg	 l	 1.800	 GoodTrial	 2.8	 bl
45	 6	 1	 right	 LineStimuli//2.8/stimNo101r12c16v2.8.jpg	 l	 1.778	 GoodTrial	 2.8	 bl
46	 6	 0	 x	 LineStimuli//2.8/stimNo157r0c0v2.8.jpg	 r	 2.616	 GoodTrial	 2.8	 bl
47	 6	 0	 x	 LineStimuli//2.8/stimNo153r0c0v2.8.jpg	 r	 2.503	 GoodTrial	 2.8	 bl
48	 6	 0	 x	 LineStimuli//2.8/stimNo143r0c0v2.8.jpg	 r	 2.557	 GoodTrial	 2.8	 bl
49	 6	 1	 right	 LineStimuli//2.8/stimNo114r8c19v2.8.jpg	 l	 1.859	 GoodTrial	 2.8	 bl
50	 6	 1	 left	 LineStimuli//2.8/stimNo82r4c6v2.8.jpg	 l	 1.933	 GoodTrial	 2.8	 bl
1	 7	 0	 x	 LineStimuli//1.5/stimNo147r0c0v1.5.jpg	 r	 2.769	 GoodTrial	 1.5	 bl
2	 7	 1	 right	 LineStimuli//1.5/stimNo81r6c17v1.5.jpg	 l	 1.894	 GoodTrial	 1.5	 bl
3	 7	 0	 x	 LineStimuli//1.5/stimNo125r0c0v1.5.jpg	 r	 2.285	 GoodTrial	 1.5	 bl
4	 7	 1	 left	 LineStimuli//1.5/stimNo97r15c6v1.5.jpg	 r	 3.031	 GoodTrial	 1.5	 bl
5	 7	 1	 left	 LineStimuli//1.5/stimNo102r7c6v1.5.jpg	 r	 6.998	 GoodTrial	 1.5	 bl
6	 7	 0	 x	 LineStimuli//1.5/stimNo130r0c0v1.5.jpg	 r	 10.579	 GoodTrial	 1.5	 bl
7	 7	 1	 right	 LineStimuli//1.5/stimNo90r3c15v1.5.jpg	 l	 2.873	 GoodTrial	 1.5	 bl
8	 7	 0	 x	 LineStimuli//1.5/stimNo154r0c0v1.5.jpg	 l	 7.640	 GoodTrial	 1.5	 bl
9	 7	 1	 right	 LineStimuli//1.5/stimNo103r13c17v1.5.jpg	 l	 2.826	 GoodTrial	 1.5	 bl
10	 7	 1	 right	 LineStimuli//1.5/stimNo111r7c17v1.5.jpg	 r	 10.267	 GoodTrial	 1.5	 bl
11	 7	 1	 right	 LineStimuli//1.5/stimNo118r9c20v1.5.jpg	 l	 7.353	 GoodTrial	 1.5	 bl
12	 7	 0	 x	 LineStimuli//1.5/stimNo121r0c0v1.5.jpg	 r	 10.575	 GoodTrial	 1.5	 bl
13	 7	 0	 x	 LineStimuli//1.5/stimNo159r0c0v1.5.jpg	 r	 9.344	 GoodTrial	 1.5	 bl
14	 7	 0	 x	 LineStimuli//1.5/stimNo123r0c0v1.5.jpg	 r	 11.374	 GoodTrial	 1.5	 bl
15	 7	 0	 x	 LineStimuli//1.5/stimNo144r0c0v1.5.jpg	 x	 9.393	 GoodTrial	 1.5	 bl
16	 7	 1	 right	 LineStimuli//1.5/stimNo92r6c18v1.5.jpg	 r	 2.191	 GoodTrial	 1.5	 bl
17	 7	 1	 right	 LineStimuli//1.5/stimNo115r14c18v1.5.jpg	 l	 3.857	 GoodTrial	 1.5	 bl
18	 7	 0	 x	 LineStimuli//1.5/stimNo131r0c0v1.5.jpg	 x	 0.048	 EARLY_RESPONSE	 1.5	 bl
19	 7	 0	 x	 LineStimuli//1.5/stimNo150r0c0v1.5.jpg	 r	 10.869	 GoodTrial	 1.5	 bl
20	 7	 1	 left	 LineStimuli//1.5/stimNo85r2c5v1.5.jpg	 r	 9.038	 GoodTrial	 1.5	 bl
21	 7	 0	 x	 LineStimuli//1.5/stimNo143r0c0v1.5.jpg	 r	 19.297	 GoodTrial	 1.5	 bl
22	 7	 1	 right	 LineStimuli//1.5/stimNo86r6c16v1.5.jpg	 r	 16.448	 GoodTrial	 1.5	 bl
23	 7	 1	 left	 LineStimuli//1.5/stimNo99r10c3v1.5.jpg	 l	 7.512	 GoodTrial	 1.5	 bl
24	 7	 0	 x	 LineStimuli//1.5/stimNo137r0c0v1.5.jpg	 r	 19.205	 GoodTrial	 1.5	 bl
25	 7	 1	 left	 LineStimuli//1.5/stimNo113r4c4v1.5.jpg	 l	 2.930	 GoodTrial	 1.5	 bl
26	 7	 1	 right	 LineStimuli//1.5/stimNo95r6c14v1.5.jpg	 r	 11.703	 GoodTrial	 1.5	 bl
27	 7	 0	 x	 LineStimuli//1.5/stimNo141r0c0v1.5.jpg	 r	 16.565	 GoodTrial	 1.5	 bl
28	 7	 0	 x	 LineStimuli//1.5/stimNo135r0c0v1.5.jpg	 r	 19.288	 GoodTrial	 1.5	 bl
29	 7	 0	 x	 LineStimuli//1.5/stimNo124r0c0v1.5.jpg	 r	 13.200	 GoodTrial	 1.5	 bl
30	 7	 0	 x	 LineStimuli//1.5/stimNo148r0c0v1.5.jpg	 r	 11.323	 GoodTrial	 1.5	 bl
31	 7	 1	 left	 LineStimuli//1.5/stimNo120r14c2v1.5.jpg	 r	 15.245	 GoodTrial	 1.5	 bl
32	 7	 0	 x	 LineStimuli//1.5/stimNo152r0c0v1.5.jpg	 r	 22.217	 GoodTrial	 1.5	 bl
33	 7	 0	 x	 LineStimuli//1.5/stimNo158r0c0v1.5.jpg	 l	 5.225	 GoodTrial	 1.5	 bl
34	 7	 0	 x	 LineStimuli//1.5/stimNo157r0c0v1.5.jpg	 r	 17.366	 GoodTrial	 1.5	 bl
35	 7	 1	 right	 LineStimuli//1.5/stimNo100r6c20v1.5.jpg	 l	 2.255	 GoodTrial	 1.5	 bl
36	 7	 1	 right	 LineStimuli//1.5/stimNo101r5c20v1.5.jpg	 l	 5.095	 GoodTrial	 1.5	 bl
37	 7	 1	 left	 LineStimuli//1.5/stimNo96r15c4v1.5.jpg	 l	 3.849	 GoodTrial	 1.5	 bl
38	 7	 0	 x	 LineStimuli//1.5/stimNo138r0c0v1.5.jpg	 r	 11.266	 GoodTrial	 1.5	 bl
39	 7	 1	 left	 LineStimuli//1.5/stimNo87r12c5v1.5.jpg	 r	 11.041	 GoodTrial	 1.5	 bl
40	 7	 1	 right	 LineStimuli//1.5/stimNo93r14c18v1.5.jpg	 l	 17.423	 GoodTrial	 1.5	 bl
41	 7	 0	 x	 LineStimuli//1.5/stimNo134r0c0v1.5.jpg	 r	 18.788	 GoodTrial	 1.5	 bl
42	 7	 0	 x	 LineStimuli//1.5/stimNo140r0c0v1.5.jpg	 r	 10.760	 GoodTrial	 1.5	 bl
43	 7	 1	 left	 LineStimuli//1.5/stimNo114r4c4v1.5.jpg	 r	 13.551	 GoodTrial	 1.5	 bl
44	 7	 0	 x	 LineStimuli//1.5/stimNo151r0c0v1.5.jpg	 r	 12.758	 GoodTrial	 1.5	 bl
45	 7	 1	 left	 LineStimuli//1.5/stimNo88r6c7v1.5.jpg	 l	 4.700	 GoodTrial	 1.5	 bl
46	 7	 0	 x	 LineStimuli//1.5/stimNo153r0c0v1.5.jpg	 r	 14.944	 GoodTrial	 1.5	 bl
47	 7	 0	 x	 LineStimuli//1.5/stimNo132r0c0v1.5.jpg	 r	 18.334	 GoodTrial	 1.5	 bl
48	 7	 0	 x	 LineStimuli//1.5/stimNo145r0c0v1.5.jpg	 r	 15.222	 GoodTrial	 1.5	 bl
49	 7	 0	 x	 LineStimuli//1.5/stimNo142r0c0v1.5.jpg	 x	 12.001	 GoodTrial	 1.5	 bl
50	 7	 1	 left	 LineStimuli//1.5/stimNo116r7c7v1.5.jpg	 l	 5.724	 GoodTrial	 1.5	 bl
