Trial	Block	Target_pr	Target_side	Name	Key	RT	Message	Block_Type	Condition
1	 1	 1	 left	 LineStimuli//2.8/stimNo116r4c7v2.8.jpg	 r	 2.381	 GoodTrial	 2.8	 bl
2	 1	 0	 x	 LineStimuli//2.8/stimNo134r0c0v2.8.jpg	 r	 17.999	 GoodTrial	 2.8	 bl
3	 1	 1	 left	 LineStimuli//2.8/stimNo83r12c4v2.8.jpg	 l	 2.198	 GoodTrial	 2.8	 bl
4	 1	 1	 right	 LineStimuli//2.8/stimNo111r9c15v2.8.jpg	 l	 2.111	 GoodTrial	 2.8	 bl
5	 1	 1	 left	 LineStimuli//2.8/stimNo105r5c4v2.8.jpg	 r	 1.645	 GoodTrial	 2.8	 bl
6	 1	 1	 right	 LineStimuli//2.8/stimNo103r3c19v2.8.jpg	 x	 0.087	 EARLY_RESPONSE	 2.8	 bl
7	 1	 1	 left	 LineStimuli//2.8/stimNo88r15c3v2.8.jpg	 l	 2.332	 GoodTrial	 2.8	 bl
8	 1	 1	 right	 LineStimuli//2.8/stimNo100r8c13v2.8.jpg	 l	 1.776	 GoodTrial	 2.8	 bl
9	 1	 0	 x	 LineStimuli//2.8/stimNo159r0c0v2.8.jpg	 r	 2.473	 GoodTrial	 2.8	 bl
10	 1	 1	 right	 LineStimuli//2.8/stimNo110r7c14v2.8.jpg	 l	 1.734	 GoodTrial	 2.8	 bl
11	 1	 0	 x	 LineStimuli//2.8/stimNo142r0c0v2.8.jpg	 r	 2.018	 GoodTrial	 2.8	 bl
12	 1	 1	 left	 LineStimuli//2.8/stimNo89r12c4v2.8.jpg	 l	 2.288	 GoodTrial	 2.8	 bl
13	 1	 0	 x	 LineStimuli//2.8/stimNo128r0c0v2.8.jpg	 r	 1.817	 GoodTrial	 2.8	 bl
14	 1	 0	 x	 LineStimuli//2.8/stimNo155r0c0v2.8.jpg	 r	 1.795	 GoodTrial	 2.8	 bl
15	 1	 0	 x	 LineStimuli//2.8/stimNo127r0c0v2.8.jpg	 l	 1.823	 GoodTrial	 2.8	 bl
16	 1	 1	 left	 LineStimuli//2.8/stimNo97r11c4v2.8.jpg	 l	 2.155	 GoodTrial	 2.8	 bl
17	 1	 0	 x	 LineStimuli//2.8/stimNo144r0c0v2.8.jpg	 r	 2.200	 GoodTrial	 2.8	 bl
18	 1	 1	 right	 LineStimuli//2.8/stimNo93r9c20v2.8.jpg	 l	 2.013	 GoodTrial	 2.8	 bl
19	 1	 0	 x	 LineStimuli//2.8/stimNo146r0c0v2.8.jpg	 r	 1.777	 GoodTrial	 2.8	 bl
20	 1	 1	 left	 LineStimuli//2.8/stimNo96r6c9v2.8.jpg	 l	 1.993	 GoodTrial	 2.8	 bl
21	 1	 0	 x	 LineStimuli//2.8/stimNo157r0c0v2.8.jpg	 r	 1.656	 GoodTrial	 2.8	 bl
22	 1	 1	 right	 LineStimuli//2.8/stimNo109r6c18v2.8.jpg	 x	 1.640	 GoodTrial	 2.8	 bl
23	 1	 0	 x	 LineStimuli//2.8/stimNo133r0c0v2.8.jpg	 r	 1.838	 GoodTrial	 2.8	 bl
24	 1	 0	 x	 LineStimuli//2.8/stimNo143r0c0v2.8.jpg	 r	 1.976	 GoodTrial	 2.8	 bl
25	 1	 1	 right	 LineStimuli//2.8/stimNo115r9c14v2.8.jpg	 l	 2.054	 GoodTrial	 2.8	 bl
26	 1	 1	 right	 LineStimuli//2.8/stimNo95r9c18v2.8.jpg	 l	 1.715	 GoodTrial	 2.8	 bl
27	 1	 1	 left	 LineStimuli//2.8/stimNo86r15c6v2.8.jpg	 l	 2.288	 GoodTrial	 2.8	 bl
28	 1	 0	 x	 LineStimuli//2.8/stimNo135r0c0v2.8.jpg	 r	 1.729	 GoodTrial	 2.8	 bl
29	 1	 0	 x	 LineStimuli//2.8/stimNo141r0c0v2.8.jpg	 r	 2.155	 GoodTrial	 2.8	 bl
30	 1	 1	 right	 LineStimuli//2.8/stimNo117r11c17v2.8.jpg	 l	 1.610	 GoodTrial	 2.8	 bl
31	 1	 0	 x	 LineStimuli//2.8/stimNo152r0c0v2.8.jpg	 r	 1.767	 GoodTrial	 2.8	 bl
32	 1	 0	 x	 LineStimuli//2.8/stimNo160r0c0v2.8.jpg	 r	 1.776	 GoodTrial	 2.8	 bl
33	 1	 0	 x	 LineStimuli//2.8/stimNo140r0c0v2.8.jpg	 r	 1.776	 GoodTrial	 2.8	 bl
34	 1	 1	 left	 LineStimuli//2.8/stimNo82r4c6v2.8.jpg	 l	 1.760	 GoodTrial	 2.8	 bl
35	 1	 1	 left	 LineStimuli//2.8/stimNo104r8c6v2.8.jpg	 r	 1.679	 GoodTrial	 2.8	 bl
36	 1	 1	 right	 LineStimuli//2.8/stimNo90r13c21v2.8.jpg	 r	 1.987	 GoodTrial	 2.8	 bl
37	 1	 1	 right	 LineStimuli//2.8/stimNo81r8c14v2.8.jpg	 l	 2.042	 GoodTrial	 2.8	 bl
38	 1	 0	 x	 LineStimuli//2.8/stimNo130r0c0v2.8.jpg	 r	 1.833	 GoodTrial	 2.8	 bl
39	 1	 0	 x	 LineStimuli//2.8/stimNo149r0c0v2.8.jpg	 r	 1.812	 GoodTrial	 2.8	 bl
40	 1	 1	 right	 LineStimuli//2.8/stimNo114r8c19v2.8.jpg	 l	 1.650	 GoodTrial	 2.8	 bl
41	 1	 0	 x	 LineStimuli//2.8/stimNo131r0c0v2.8.jpg	 r	 1.729	 GoodTrial	 2.8	 bl
42	 1	 0	 x	 LineStimuli//2.8/stimNo150r0c0v2.8.jpg	 r	 1.718	 GoodTrial	 2.8	 bl
43	 1	 0	 x	 LineStimuli//2.8/stimNo129r0c0v2.8.jpg	 r	 1.732	 GoodTrial	 2.8	 bl
44	 1	 1	 left	 LineStimuli//2.8/stimNo94r13c7v2.8.jpg	 r	 1.768	 GoodTrial	 2.8	 bl
45	 1	 1	 right	 LineStimuli//2.8/stimNo120r8c20v2.8.jpg	 l	 1.752	 GoodTrial	 2.8	 bl
46	 1	 1	 left	 LineStimuli//2.8/stimNo102r3c2v2.8.jpg	 r	 1.682	 GoodTrial	 2.8	 bl
47	 1	 1	 right	 LineStimuli//2.8/stimNo118r5c16v2.8.jpg	 l	 1.664	 GoodTrial	 2.8	 bl
48	 1	 0	 x	 LineStimuli//2.8/stimNo154r0c0v2.8.jpg	 r	 2.040	 GoodTrial	 2.8	 bl
49	 1	 1	 left	 LineStimuli//2.8/stimNo91r2c3v2.8.jpg	 l	 1.784	 GoodTrial	 2.8	 bl
50	 1	 0	 x	 LineStimuli//2.8/stimNo153r0c0v2.8.jpg	 r	 1.770	 GoodTrial	 2.8	 bl
1	 2	 1	 right	 LineStimuli//1.8/stimNo82r7c18v1.8.jpg	 l	 2.000	 GoodTrial	 1.8	 bl
2	 2	 1	 right	 LineStimuli//1.8/stimNo119r3c21v1.8.jpg	 l	 3.080	 GoodTrial	 1.8	 bl
3	 2	 1	 right	 LineStimuli//1.8/stimNo111r4c21v1.8.jpg	 r	 2.056	 GoodTrial	 1.8	 bl
4	 2	 0	 x	 LineStimuli//1.8/stimNo139r0c0v1.8.jpg	 r	 2.424	 GoodTrial	 1.8	 bl
5	 2	 1	 right	 LineStimuli//1.8/stimNo83r6c13v1.8.jpg	 l	 2.456	 GoodTrial	 1.8	 bl
6	 2	 0	 x	 LineStimuli//1.8/stimNo121r0c0v1.8.jpg	 r	 1.848	 GoodTrial	 1.8	 bl
7	 2	 0	 x	 LineStimuli//1.8/stimNo125r0c0v1.8.jpg	 r	 1.872	 GoodTrial	 1.8	 bl
8	 2	 0	 x	 LineStimuli//1.8/stimNo160r0c0v1.8.jpg	 r	 2.813	 GoodTrial	 1.8	 bl
9	 2	 0	 x	 LineStimuli//1.8/stimNo158r0c0v1.8.jpg	 r	 2.563	 GoodTrial	 1.8	 bl
10	 2	 0	 x	 LineStimuli//1.8/stimNo149r0c0v1.8.jpg	 r	 1.689	 GoodTrial	 1.8	 bl
11	 2	 1	 right	 LineStimuli//1.8/stimNo93r3c17v1.8.jpg	 l	 1.731	 GoodTrial	 1.8	 bl
12	 2	 1	 right	 LineStimuli//1.8/stimNo102r14c17v1.8.jpg	 r	 1.821	 GoodTrial	 1.8	 bl
13	 2	 0	 x	 LineStimuli//1.8/stimNo157r0c0v1.8.jpg	 r	 2.358	 GoodTrial	 1.8	 bl
14	 2	 0	 x	 LineStimuli//1.8/stimNo142r0c0v1.8.jpg	 l	 1.715	 GoodTrial	 1.8	 bl
15	 2	 1	 right	 LineStimuli//1.8/stimNo101r4c13v1.8.jpg	 r	 2.049	 GoodTrial	 1.8	 bl
16	 2	 1	 left	 LineStimuli//1.8/stimNo115r5c9v1.8.jpg	 l	 2.040	 GoodTrial	 1.8	 bl
17	 2	 0	 x	 LineStimuli//1.8/stimNo147r0c0v1.8.jpg	 r	 2.216	 GoodTrial	 1.8	 bl
18	 2	 0	 x	 LineStimuli//1.8/stimNo132r0c0v1.8.jpg	 r	 2.808	 GoodTrial	 1.8	 bl
19	 2	 0	 x	 LineStimuli//1.8/stimNo141r0c0v1.8.jpg	 r	 2.277	 GoodTrial	 1.8	 bl
20	 2	 0	 x	 LineStimuli//1.8/stimNo133r0c0v1.8.jpg	 r	 2.331	 GoodTrial	 1.8	 bl
21	 2	 1	 right	 LineStimuli//1.8/stimNo92r10c18v1.8.jpg	 l	 1.665	 GoodTrial	 1.8	 bl
22	 2	 0	 x	 LineStimuli//1.8/stimNo130r0c0v1.8.jpg	 r	 2.095	 GoodTrial	 1.8	 bl
23	 2	 0	 x	 LineStimuli//1.8/stimNo124r0c0v1.8.jpg	 r	 1.715	 GoodTrial	 1.8	 bl
24	 2	 1	 right	 LineStimuli//1.8/stimNo99r12c16v1.8.jpg	 r	 1.945	 GoodTrial	 1.8	 bl
25	 2	 1	 right	 LineStimuli//1.8/stimNo90r15c13v1.8.jpg	 r	 1.820	 GoodTrial	 1.8	 bl
26	 2	 1	 left	 LineStimuli//1.8/stimNo88r15c9v1.8.jpg	 r	 2.292	 GoodTrial	 1.8	 bl
27	 2	 0	 x	 LineStimuli//1.8/stimNo146r0c0v1.8.jpg	 r	 3.481	 GoodTrial	 1.8	 bl
28	 2	 1	 left	 LineStimuli//1.8/stimNo103r15c10v1.8.jpg	 r	 1.884	 GoodTrial	 1.8	 bl
29	 2	 0	 x	 LineStimuli//1.8/stimNo144r0c0v1.8.jpg	 r	 4.125	 GoodTrial	 1.8	 bl
30	 2	 1	 left	 LineStimuli//1.8/stimNo86r14c4v1.8.jpg	 r	 3.998	 GoodTrial	 1.8	 bl
31	 2	 1	 right	 LineStimuli//1.8/stimNo114r8c13v1.8.jpg	 l	 3.024	 GoodTrial	 1.8	 bl
32	 2	 0	 x	 LineStimuli//1.8/stimNo122r0c0v1.8.jpg	 r	 3.783	 GoodTrial	 1.8	 bl
33	 2	 1	 left	 LineStimuli//1.8/stimNo105r6c5v1.8.jpg	 l	 2.256	 GoodTrial	 1.8	 bl
34	 2	 0	 x	 LineStimuli//1.8/stimNo152r0c0v1.8.jpg	 r	 3.016	 GoodTrial	 1.8	 bl
35	 2	 0	 x	 LineStimuli//1.8/stimNo131r0c0v1.8.jpg	 r	 3.839	 GoodTrial	 1.8	 bl
36	 2	 0	 x	 LineStimuli//1.8/stimNo137r0c0v1.8.jpg	 l	 1.999	 GoodTrial	 1.8	 bl
37	 2	 0	 x	 LineStimuli//1.8/stimNo128r0c0v1.8.jpg	 r	 3.925	 GoodTrial	 1.8	 bl
38	 2	 1	 left	 LineStimuli//1.8/stimNo91r14c4v1.8.jpg	 l	 1.915	 GoodTrial	 1.8	 bl
39	 2	 0	 x	 LineStimuli//1.8/stimNo155r0c0v1.8.jpg	 r	 2.737	 GoodTrial	 1.8	 bl
40	 2	 0	 x	 LineStimuli//1.8/stimNo134r0c0v1.8.jpg	 r	 2.509	 GoodTrial	 1.8	 bl
41	 2	 1	 left	 LineStimuli//1.8/stimNo94r13c8v1.8.jpg	 r	 1.847	 GoodTrial	 1.8	 bl
42	 2	 0	 x	 LineStimuli//1.8/stimNo129r0c0v1.8.jpg	 x	 0.048	 EARLY_RESPONSE	 1.8	 bl
43	 2	 1	 left	 LineStimuli//1.8/stimNo107r5c4v1.8.jpg	 l	 1.705	 GoodTrial	 1.8	 bl
44	 2	 1	 left	 LineStimuli//1.8/stimNo113r6c7v1.8.jpg	 l	 2.076	 GoodTrial	 1.8	 bl
45	 2	 0	 x	 LineStimuli//1.8/stimNo123r0c0v1.8.jpg	 r	 3.089	 GoodTrial	 1.8	 bl
46	 2	 0	 x	 LineStimuli//1.8/stimNo127r0c0v1.8.jpg	 r	 3.030	 GoodTrial	 1.8	 bl
47	 2	 1	 right	 LineStimuli//1.8/stimNo109r7c17v1.8.jpg	 r	 2.909	 GoodTrial	 1.8	 bl
48	 2	 1	 left	 LineStimuli//1.8/stimNo85r13c2v1.8.jpg	 l	 2.919	 GoodTrial	 1.8	 bl
49	 2	 1	 left	 LineStimuli//1.8/stimNo110r4c7v1.8.jpg	 r	 2.640	 GoodTrial	 1.8	 bl
50	 2	 0	 x	 LineStimuli//1.8/stimNo145r0c0v1.8.jpg	 x	 0.824	 EARLY_RESPONSE	 1.8	 bl
1	 3	 1	 right	 LineStimuli//4.3/stimNo82r7c18v4.3.jpg	 l	 1.839	 GoodTrial	 4.3	 bl
2	 3	 0	 x	 LineStimuli//4.3/stimNo160r0c0v4.3.jpg	 r	 1.998	 GoodTrial	 4.3	 bl
3	 3	 0	 x	 LineStimuli//4.3/stimNo122r0c0v4.3.jpg	 r	 2.780	 GoodTrial	 4.3	 bl
4	 3	 0	 x	 LineStimuli//4.3/stimNo136r0c0v4.3.jpg	 r	 2.563	 GoodTrial	 4.3	 bl
5	 3	 0	 x	 LineStimuli//4.3/stimNo121r0c0v4.3.jpg	 r	 1.815	 GoodTrial	 4.3	 bl
6	 3	 0	 x	 LineStimuli//4.3/stimNo132r0c0v4.3.jpg	 r	 2.923	 GoodTrial	 4.3	 bl
7	 3	 1	 left	 LineStimuli//4.3/stimNo105r14c6v4.3.jpg	 l	 1.608	 GoodTrial	 4.3	 bl
8	 3	 0	 x	 LineStimuli//4.3/stimNo145r0c0v4.3.jpg	 r	 1.957	 GoodTrial	 4.3	 bl
9	 3	 1	 right	 LineStimuli//4.3/stimNo119r12c17v4.3.jpg	 l	 1.641	 GoodTrial	 4.3	 bl
10	 3	 1	 left	 LineStimuli//4.3/stimNo106r8c2v4.3.jpg	 l	 1.595	 GoodTrial	 4.3	 bl
11	 3	 0	 x	 LineStimuli//4.3/stimNo142r0c0v4.3.jpg	 r	 1.683	 GoodTrial	 4.3	 bl
12	 3	 1	 left	 LineStimuli//4.3/stimNo98r3c8v4.3.jpg	 l	 1.809	 GoodTrial	 4.3	 bl
13	 3	 1	 right	 LineStimuli//4.3/stimNo81r10c14v4.3.jpg	 l	 1.583	 GoodTrial	 4.3	 bl
14	 3	 1	 right	 LineStimuli//4.3/stimNo120r8c18v4.3.jpg	 l	 1.484	 GoodTrial	 4.3	 bl
15	 3	 1	 left	 LineStimuli//4.3/stimNo113r11c7v4.3.jpg	 l	 1.657	 GoodTrial	 4.3	 bl
16	 3	 1	 right	 LineStimuli//4.3/stimNo97r6c21v4.3.jpg	 l	 1.581	 GoodTrial	 4.3	 bl
17	 3	 1	 left	 LineStimuli//4.3/stimNo108r5c8v4.3.jpg	 l	 1.489	 GoodTrial	 4.3	 bl
18	 3	 1	 right	 LineStimuli//4.3/stimNo116r5c13v4.3.jpg	 l	 1.451	 GoodTrial	 4.3	 bl
19	 3	 1	 left	 LineStimuli//4.3/stimNo104r15c2v4.3.jpg	 l	 1.805	 GoodTrial	 4.3	 bl
20	 3	 0	 x	 LineStimuli//4.3/stimNo159r0c0v4.3.jpg	 r	 2.127	 GoodTrial	 4.3	 bl
21	 3	 1	 right	 LineStimuli//4.3/stimNo115r10c18v4.3.jpg	 l	 1.541	 GoodTrial	 4.3	 bl
22	 3	 1	 left	 LineStimuli//4.3/stimNo101r5c5v4.3.jpg	 l	 1.709	 GoodTrial	 4.3	 bl
23	 3	 0	 x	 LineStimuli//4.3/stimNo125r0c0v4.3.jpg	 r	 2.098	 GoodTrial	 4.3	 bl
24	 3	 0	 x	 LineStimuli//4.3/stimNo130r0c0v4.3.jpg	 r	 2.201	 GoodTrial	 4.3	 bl
25	 3	 1	 left	 LineStimuli//4.3/stimNo88r10c3v4.3.jpg	 l	 1.578	 GoodTrial	 4.3	 bl
26	 3	 0	 x	 LineStimuli//4.3/stimNo147r0c0v4.3.jpg	 r	 2.664	 GoodTrial	 4.3	 bl
27	 3	 0	 x	 LineStimuli//4.3/stimNo135r0c0v4.3.jpg	 r	 2.013	 GoodTrial	 4.3	 bl
28	 3	 0	 x	 LineStimuli//4.3/stimNo150r0c0v4.3.jpg	 r	 1.945	 GoodTrial	 4.3	 bl
29	 3	 0	 x	 LineStimuli//4.3/stimNo144r0c0v4.3.jpg	 r	 1.794	 GoodTrial	 4.3	 bl
30	 3	 0	 x	 LineStimuli//4.3/stimNo152r0c0v4.3.jpg	 r	 1.715	 GoodTrial	 4.3	 bl
31	 3	 1	 left	 LineStimuli//4.3/stimNo107r2c8v4.3.jpg	 l	 1.591	 GoodTrial	 4.3	 bl
32	 3	 0	 x	 LineStimuli//4.3/stimNo156r0c0v4.3.jpg	 r	 1.613	 GoodTrial	 4.3	 bl
33	 3	 0	 x	 LineStimuli//4.3/stimNo126r0c0v4.3.jpg	 r	 1.517	 GoodTrial	 4.3	 bl
34	 3	 1	 left	 LineStimuli//4.3/stimNo111r10c9v4.3.jpg	 l	 1.571	 GoodTrial	 4.3	 bl
35	 3	 1	 left	 LineStimuli//4.3/stimNo87r3c5v4.3.jpg	 l	 1.549	 GoodTrial	 4.3	 bl
36	 3	 0	 x	 LineStimuli//4.3/stimNo140r0c0v4.3.jpg	 r	 1.681	 GoodTrial	 4.3	 bl
37	 3	 1	 left	 LineStimuli//4.3/stimNo100r8c3v4.3.jpg	 l	 1.861	 GoodTrial	 4.3	 bl
38	 3	 1	 right	 LineStimuli//4.3/stimNo84r15c20v4.3.jpg	 l	 1.833	 GoodTrial	 4.3	 bl
39	 3	 0	 x	 LineStimuli//4.3/stimNo158r0c0v4.3.jpg	 r	 1.820	 GoodTrial	 4.3	 bl
40	 3	 0	 x	 LineStimuli//4.3/stimNo133r0c0v4.3.jpg	 r	 1.602	 GoodTrial	 4.3	 bl
41	 3	 0	 x	 LineStimuli//4.3/stimNo138r0c0v4.3.jpg	 r	 1.762	 GoodTrial	 4.3	 bl
42	 3	 0	 x	 LineStimuli//4.3/stimNo143r0c0v4.3.jpg	 r	 1.693	 GoodTrial	 4.3	 bl
43	 3	 1	 right	 LineStimuli//4.3/stimNo109r15c15v4.3.jpg	 l	 1.625	 GoodTrial	 4.3	 bl
44	 3	 0	 x	 LineStimuli//4.3/stimNo127r0c0v4.3.jpg	 r	 1.743	 GoodTrial	 4.3	 bl
45	 3	 0	 x	 LineStimuli//4.3/stimNo155r0c0v4.3.jpg	 r	 1.593	 GoodTrial	 4.3	 bl
46	 3	 0	 x	 LineStimuli//4.3/stimNo157r0c0v4.3.jpg	 r	 1.735	 GoodTrial	 4.3	 bl
47	 3	 0	 x	 LineStimuli//4.3/stimNo123r0c0v4.3.jpg	 r	 1.753	 GoodTrial	 4.3	 bl
48	 3	 0	 x	 LineStimuli//4.3/stimNo148r0c0v4.3.jpg	 r	 1.603	 GoodTrial	 4.3	 bl
49	 3	 1	 right	 LineStimuli//4.3/stimNo117r10c21v4.3.jpg	 l	 1.664	 GoodTrial	 4.3	 bl
50	 3	 1	 right	 LineStimuli//4.3/stimNo94r12c13v4.3.jpg	 l	 1.872	 GoodTrial	 4.3	 bl
1	 4	 0	 x	 LineStimuli//2.3/stimNo157r0c0v2.3.jpg	 r	 2.391	 GoodTrial	 2.3	 bl
2	 4	 1	 right	 LineStimuli//2.3/stimNo102r6c18v2.3.jpg	 l	 1.622	 GoodTrial	 2.3	 bl
3	 4	 0	 x	 LineStimuli//2.3/stimNo129r0c0v2.3.jpg	 r	 2.391	 GoodTrial	 2.3	 bl
4	 4	 1	 right	 LineStimuli//2.3/stimNo98r12c21v2.3.jpg	 l	 1.750	 GoodTrial	 2.3	 bl
5	 4	 1	 left	 LineStimuli//2.3/stimNo117r11c8v2.3.jpg	 l	 1.724	 GoodTrial	 2.3	 bl
6	 4	 1	 right	 LineStimuli//2.3/stimNo84r15c14v2.3.jpg	 l	 1.572	 GoodTrial	 2.3	 bl
7	 4	 0	 x	 LineStimuli//2.3/stimNo142r0c0v2.3.jpg	 r	 2.168	 GoodTrial	 2.3	 bl
8	 4	 0	 x	 LineStimuli//2.3/stimNo144r0c0v2.3.jpg	 r	 3.638	 GoodTrial	 2.3	 bl
9	 4	 0	 x	 LineStimuli//2.3/stimNo156r0c0v2.3.jpg	 r	 2.731	 GoodTrial	 2.3	 bl
10	 4	 1	 left	 LineStimuli//2.3/stimNo115r7c3v2.3.jpg	 l	 1.651	 GoodTrial	 2.3	 bl
11	 4	 1	 right	 LineStimuli//2.3/stimNo93r4c16v2.3.jpg	 l	 1.779	 GoodTrial	 2.3	 bl
12	 4	 0	 x	 LineStimuli//2.3/stimNo140r0c0v2.3.jpg	 r	 2.922	 GoodTrial	 2.3	 bl
13	 4	 0	 x	 LineStimuli//2.3/stimNo124r0c0v2.3.jpg	 r	 3.937	 GoodTrial	 2.3	 bl
14	 4	 1	 right	 LineStimuli//2.3/stimNo120r4c17v2.3.jpg	 l	 1.591	 GoodTrial	 2.3	 bl
15	 4	 0	 x	 LineStimuli//2.3/stimNo127r0c0v2.3.jpg	 r	 2.210	 GoodTrial	 2.3	 bl
16	 4	 1	 left	 LineStimuli//2.3/stimNo104r2c4v2.3.jpg	 l	 1.721	 GoodTrial	 2.3	 bl
17	 4	 0	 x	 LineStimuli//2.3/stimNo125r0c0v2.3.jpg	 r	 3.599	 GoodTrial	 2.3	 bl
18	 4	 1	 right	 LineStimuli//2.3/stimNo101r8c14v2.3.jpg	 l	 2.291	 GoodTrial	 2.3	 bl
19	 4	 0	 x	 LineStimuli//2.3/stimNo145r0c0v2.3.jpg	 r	 2.462	 GoodTrial	 2.3	 bl
20	 4	 0	 x	 LineStimuli//2.3/stimNo146r0c0v2.3.jpg	 r	 3.603	 GoodTrial	 2.3	 bl
21	 4	 1	 right	 LineStimuli//2.3/stimNo109r2c17v2.3.jpg	 l	 1.637	 GoodTrial	 2.3	 bl
22	 4	 0	 x	 LineStimuli//2.3/stimNo130r0c0v2.3.jpg	 r	 2.612	 GoodTrial	 2.3	 bl
23	 4	 0	 x	 LineStimuli//2.3/stimNo149r0c0v2.3.jpg	 r	 4.200	 GoodTrial	 2.3	 bl
24	 4	 0	 x	 LineStimuli//2.3/stimNo132r0c0v2.3.jpg	 r	 4.140	 GoodTrial	 2.3	 bl
25	 4	 0	 x	 LineStimuli//2.3/stimNo141r0c0v2.3.jpg	 r	 3.765	 GoodTrial	 2.3	 bl
26	 4	 0	 x	 LineStimuli//2.3/stimNo138r0c0v2.3.jpg	 r	 4.692	 GoodTrial	 2.3	 bl
27	 4	 1	 right	 LineStimuli//2.3/stimNo85r4c15v2.3.jpg	 l	 1.556	 GoodTrial	 2.3	 bl
28	 4	 1	 left	 LineStimuli//2.3/stimNo95r13c9v2.3.jpg	 l	 2.681	 GoodTrial	 2.3	 bl
29	 4	 1	 left	 LineStimuli//2.3/stimNo81r4c3v2.3.jpg	 l	 1.669	 GoodTrial	 2.3	 bl
30	 4	 1	 left	 LineStimuli//2.3/stimNo112r3c2v2.3.jpg	 l	 1.500	 GoodTrial	 2.3	 bl
31	 4	 1	 left	 LineStimuli//2.3/stimNo113r3c8v2.3.jpg	 l	 1.544	 GoodTrial	 2.3	 bl
32	 4	 1	 right	 LineStimuli//2.3/stimNo111r11c21v2.3.jpg	 l	 1.719	 GoodTrial	 2.3	 bl
33	 4	 1	 right	 LineStimuli//2.3/stimNo110r15c19v2.3.jpg	 l	 1.652	 GoodTrial	 2.3	 bl
34	 4	 0	 x	 LineStimuli//2.3/stimNo128r0c0v2.3.jpg	 r	 2.171	 GoodTrial	 2.3	 bl
35	 4	 0	 x	 LineStimuli//2.3/stimNo121r0c0v2.3.jpg	 r	 2.400	 GoodTrial	 2.3	 bl
36	 4	 1	 right	 LineStimuli//2.3/stimNo87r13c19v2.3.jpg	 l	 2.741	 GoodTrial	 2.3	 bl
37	 4	 0	 x	 LineStimuli//2.3/stimNo158r0c0v2.3.jpg	 r	 3.943	 GoodTrial	 2.3	 bl
38	 4	 1	 right	 LineStimuli//2.3/stimNo91r11c20v2.3.jpg	 l	 1.669	 GoodTrial	 2.3	 bl
39	 4	 0	 x	 LineStimuli//2.3/stimNo155r0c0v2.3.jpg	 r	 2.920	 GoodTrial	 2.3	 bl
40	 4	 1	 right	 LineStimuli//2.3/stimNo89r8c21v2.3.jpg	 l	 1.626	 GoodTrial	 2.3	 bl
41	 4	 0	 x	 LineStimuli//2.3/stimNo143r0c0v2.3.jpg	 r	 2.026	 GoodTrial	 2.3	 bl
42	 4	 0	 x	 LineStimuli//2.3/stimNo133r0c0v2.3.jpg	 r	 2.063	 GoodTrial	 2.3	 bl
43	 4	 1	 right	 LineStimuli//2.3/stimNo105r14c14v2.3.jpg	 l	 2.092	 GoodTrial	 2.3	 bl
44	 4	 1	 left	 LineStimuli//2.3/stimNo86r8c9v2.3.jpg	 r	 2.587	 GoodTrial	 2.3	 bl
45	 4	 1	 left	 LineStimuli//2.3/stimNo88r15c2v2.3.jpg	 l	 2.794	 GoodTrial	 2.3	 bl
46	 4	 1	 left	 LineStimuli//2.3/stimNo82r12c4v2.3.jpg	 l	 1.612	 GoodTrial	 2.3	 bl
47	 4	 1	 left	 LineStimuli//2.3/stimNo119r3c2v2.3.jpg	 l	 2.453	 GoodTrial	 2.3	 bl
48	 4	 0	 x	 LineStimuli//2.3/stimNo136r0c0v2.3.jpg	 r	 4.115	 GoodTrial	 2.3	 bl
49	 4	 0	 x	 LineStimuli//2.3/stimNo151r0c0v2.3.jpg	 r	 3.490	 GoodTrial	 2.3	 bl
50	 4	 1	 right	 LineStimuli//2.3/stimNo107r11c15v2.3.jpg	 r	 2.197	 GoodTrial	 2.3	 bl
1	 5	 0	 x	 LineStimuli//1.5/stimNo143r0c0v1.5.jpg	 x	 2.795	 GoodTrial	 1.5	 bl
2	 5	 1	 right	 LineStimuli//1.5/stimNo92r6c18v1.5.jpg	 r	 3.716	 GoodTrial	 1.5	 bl
3	 5	 0	 x	 LineStimuli//1.5/stimNo126r0c0v1.5.jpg	 r	 5.063	 GoodTrial	 1.5	 bl
4	 5	 0	 x	 LineStimuli//1.5/stimNo156r0c0v1.5.jpg	 r	 5.208	 GoodTrial	 1.5	 bl
5	 5	 0	 x	 LineStimuli//1.5/stimNo132r0c0v1.5.jpg	 r	 4.640	 GoodTrial	 1.5	 bl
6	 5	 0	 x	 LineStimuli//1.5/stimNo134r0c0v1.5.jpg	 l	 2.477	 GoodTrial	 1.5	 bl
7	 5	 0	 x	 LineStimuli//1.5/stimNo137r0c0v1.5.jpg	 r	 3.405	 GoodTrial	 1.5	 bl
8	 5	 1	 left	 LineStimuli//1.5/stimNo91r9c3v1.5.jpg	 l	 2.384	 GoodTrial	 1.5	 bl
9	 5	 0	 x	 LineStimuli//1.5/stimNo151r0c0v1.5.jpg	 r	 2.564	 GoodTrial	 1.5	 bl
10	 5	 1	 left	 LineStimuli//1.5/stimNo85r2c5v1.5.jpg	 r	 4.433	 GoodTrial	 1.5	 bl
11	 5	 1	 right	 LineStimuli//1.5/stimNo119r6c19v1.5.jpg	 r	 4.626	 GoodTrial	 1.5	 bl
12	 5	 0	 x	 LineStimuli//1.5/stimNo154r0c0v1.5.jpg	 l	 3.750	 GoodTrial	 1.5	 bl
13	 5	 0	 x	 LineStimuli//1.5/stimNo135r0c0v1.5.jpg	 r	 4.354	 GoodTrial	 1.5	 bl
14	 5	 1	 left	 LineStimuli//1.5/stimNo110r7c3v1.5.jpg	 r	 3.798	 GoodTrial	 1.5	 bl
15	 5	 1	 right	 LineStimuli//1.5/stimNo101r5c20v1.5.jpg	 x	 4.038	 GoodTrial	 1.5	 bl
16	 5	 1	 right	 LineStimuli//1.5/stimNo81r6c17v1.5.jpg	 l	 3.512	 GoodTrial	 1.5	 bl
17	 5	 1	 right	 LineStimuli//1.5/stimNo93r14c18v1.5.jpg	 r	 4.952	 GoodTrial	 1.5	 bl
18	 5	 1	 left	 LineStimuli//1.5/stimNo102r7c6v1.5.jpg	 l	 2.895	 GoodTrial	 1.5	 bl
19	 5	 1	 right	 LineStimuli//1.5/stimNo100r6c20v1.5.jpg	 l	 2.420	 GoodTrial	 1.5	 bl
20	 5	 0	 x	 LineStimuli//1.5/stimNo140r0c0v1.5.jpg	 r	 3.776	 GoodTrial	 1.5	 bl
21	 5	 0	 x	 LineStimuli//1.5/stimNo149r0c0v1.5.jpg	 r	 6.048	 GoodTrial	 1.5	 bl
22	 5	 1	 left	 LineStimuli//1.5/stimNo120r14c2v1.5.jpg	 r	 3.252	 GoodTrial	 1.5	 bl
23	 5	 0	 x	 LineStimuli//1.5/stimNo124r0c0v1.5.jpg	 r	 5.257	 GoodTrial	 1.5	 bl
24	 5	 0	 x	 LineStimuli//1.5/stimNo148r0c0v1.5.jpg	 r	 3.881	 GoodTrial	 1.5	 bl
25	 5	 1	 left	 LineStimuli//1.5/stimNo88r6c7v1.5.jpg	 r	 3.057	 GoodTrial	 1.5	 bl
26	 5	 0	 x	 LineStimuli//1.5/stimNo130r0c0v1.5.jpg	 r	 3.163	 GoodTrial	 1.5	 bl
27	 5	 0	 x	 LineStimuli//1.5/stimNo129r0c0v1.5.jpg	 r	 5.504	 GoodTrial	 1.5	 bl
28	 5	 0	 x	 LineStimuli//1.5/stimNo125r0c0v1.5.jpg	 r	 4.088	 GoodTrial	 1.5	 bl
29	 5	 1	 right	 LineStimuli//1.5/stimNo90r3c15v1.5.jpg	 r	 3.756	 GoodTrial	 1.5	 bl
30	 5	 1	 left	 LineStimuli//1.5/stimNo106r3c7v1.5.jpg	 r	 5.762	 GoodTrial	 1.5	 bl
31	 5	 1	 right	 LineStimuli//1.5/stimNo98r8c21v1.5.jpg	 r	 4.628	 GoodTrial	 1.5	 bl
32	 5	 1	 left	 LineStimuli//1.5/stimNo113r4c4v1.5.jpg	 l	 2.670	 GoodTrial	 1.5	 bl
33	 5	 0	 x	 LineStimuli//1.5/stimNo136r0c0v1.5.jpg	 r	 7.958	 GoodTrial	 1.5	 bl
34	 5	 0	 x	 LineStimuli//1.5/stimNo128r0c0v1.5.jpg	 r	 6.395	 GoodTrial	 1.5	 bl
35	 5	 0	 x	 LineStimuli//1.5/stimNo127r0c0v1.5.jpg	 r	 4.667	 GoodTrial	 1.5	 bl
36	 5	 1	 right	 LineStimuli//1.5/stimNo95r6c14v1.5.jpg	 l	 4.880	 GoodTrial	 1.5	 bl
37	 5	 1	 right	 LineStimuli//1.5/stimNo105r3c18v1.5.jpg	 l	 2.957	 GoodTrial	 1.5	 bl
38	 5	 1	 right	 LineStimuli//1.5/stimNo103r13c17v1.5.jpg	 r	 3.910	 GoodTrial	 1.5	 bl
39	 5	 1	 left	 LineStimuli//1.5/stimNo97r15c6v1.5.jpg	 x	 0.048	 EARLY_RESPONSE	 1.5	 bl
40	 5	 0	 x	 LineStimuli//1.5/stimNo158r0c0v1.5.jpg	 l	 5.742	 GoodTrial	 1.5	 bl
41	 5	 1	 left	 LineStimuli//1.5/stimNo96r15c4v1.5.jpg	 r	 3.608	 GoodTrial	 1.5	 bl
42	 5	 0	 x	 LineStimuli//1.5/stimNo157r0c0v1.5.jpg	 r	 6.439	 GoodTrial	 1.5	 bl
43	 5	 1	 left	 LineStimuli//1.5/stimNo83r12c7v1.5.jpg	 r	 2.747	 GoodTrial	 1.5	 bl
44	 5	 1	 left	 LineStimuli//1.5/stimNo117r7c8v1.5.jpg	 r	 5.535	 GoodTrial	 1.5	 bl
45	 5	 0	 x	 LineStimuli//1.5/stimNo138r0c0v1.5.jpg	 r	 2.654	 GoodTrial	 1.5	 bl
46	 5	 1	 right	 LineStimuli//1.5/stimNo104r5c18v1.5.jpg	 r	 5.009	 GoodTrial	 1.5	 bl
47	 5	 0	 x	 LineStimuli//1.5/stimNo155r0c0v1.5.jpg	 r	 7.075	 GoodTrial	 1.5	 bl
48	 5	 1	 left	 LineStimuli//1.5/stimNo94r10c6v1.5.jpg	 r	 5.950	 GoodTrial	 1.5	 bl
49	 5	 1	 right	 LineStimuli//1.5/stimNo111r7c17v1.5.jpg	 x	 3.178	 GoodTrial	 1.5	 bl
50	 5	 0	 x	 LineStimuli//1.5/stimNo150r0c0v1.5.jpg	 r	 3.998	 GoodTrial	 1.5	 bl
1	 6	 0	 x	 LineStimuli//3.8/stimNo132r0c0v3.8.jpg	 r	 3.621	 GoodTrial	 3.8	 bl
2	 6	 1	 left	 LineStimuli//3.8/stimNo103r11c7v3.8.jpg	 l	 1.603	 GoodTrial	 3.8	 bl
3	 6	 0	 x	 LineStimuli//3.8/stimNo133r0c0v3.8.jpg	 r	 2.121	 GoodTrial	 3.8	 bl
4	 6	 0	 x	 LineStimuli//3.8/stimNo148r0c0v3.8.jpg	 r	 1.814	 GoodTrial	 3.8	 bl
5	 6	 0	 x	 LineStimuli//3.8/stimNo127r0c0v3.8.jpg	 r	 1.734	 GoodTrial	 3.8	 bl
6	 6	 1	 right	 LineStimuli//3.8/stimNo96r2c13v3.8.jpg	 l	 1.684	 GoodTrial	 3.8	 bl
7	 6	 1	 left	 LineStimuli//3.8/stimNo89r10c7v3.8.jpg	 l	 1.648	 GoodTrial	 3.8	 bl
8	 6	 1	 left	 LineStimuli//3.8/stimNo98r2c9v3.8.jpg	 l	 1.742	 GoodTrial	 3.8	 bl
9	 6	 0	 x	 LineStimuli//3.8/stimNo124r0c0v3.8.jpg	 r	 1.747	 GoodTrial	 3.8	 bl
10	 6	 1	 left	 LineStimuli//3.8/stimNo106r9c9v3.8.jpg	 l	 1.559	 GoodTrial	 3.8	 bl
11	 6	 0	 x	 LineStimuli//3.8/stimNo154r0c0v3.8.jpg	 r	 1.697	 GoodTrial	 3.8	 bl
12	 6	 0	 x	 LineStimuli//3.8/stimNo145r0c0v3.8.jpg	 r	 1.712	 GoodTrial	 3.8	 bl
13	 6	 1	 right	 LineStimuli//3.8/stimNo114r10c14v3.8.jpg	 l	 1.617	 GoodTrial	 3.8	 bl
14	 6	 0	 x	 LineStimuli//3.8/stimNo136r0c0v3.8.jpg	 r	 2.333	 GoodTrial	 3.8	 bl
15	 6	 0	 x	 LineStimuli//3.8/stimNo157r0c0v3.8.jpg	 r	 2.493	 GoodTrial	 3.8	 bl
16	 6	 0	 x	 LineStimuli//3.8/stimNo142r0c0v3.8.jpg	 r	 1.719	 GoodTrial	 3.8	 bl
17	 6	 0	 x	 LineStimuli//3.8/stimNo150r0c0v3.8.jpg	 r	 1.609	 GoodTrial	 3.8	 bl
18	 6	 1	 left	 LineStimuli//3.8/stimNo93r8c2v3.8.jpg	 l	 2.528	 GoodTrial	 3.8	 bl
19	 6	 1	 left	 LineStimuli//3.8/stimNo108r3c6v3.8.jpg	 l	 2.478	 GoodTrial	 3.8	 bl
20	 6	 1	 right	 LineStimuli//3.8/stimNo95r5c21v3.8.jpg	 l	 2.612	 GoodTrial	 3.8	 bl
21	 6	 0	 x	 LineStimuli//3.8/stimNo121r0c0v3.8.jpg	 r	 1.667	 GoodTrial	 3.8	 bl
22	 6	 0	 x	 LineStimuli//3.8/stimNo153r0c0v3.8.jpg	 r	 1.787	 GoodTrial	 3.8	 bl
23	 6	 1	 left	 LineStimuli//3.8/stimNo97r15c9v3.8.jpg	 l	 2.143	 GoodTrial	 3.8	 bl
24	 6	 0	 x	 LineStimuli//3.8/stimNo122r0c0v3.8.jpg	 r	 1.830	 GoodTrial	 3.8	 bl
25	 6	 0	 x	 LineStimuli//3.8/stimNo144r0c0v3.8.jpg	 r	 1.913	 GoodTrial	 3.8	 bl
26	 6	 1	 right	 LineStimuli//3.8/stimNo90r8c17v3.8.jpg	 l	 1.721	 GoodTrial	 3.8	 bl
27	 6	 1	 right	 LineStimuli//3.8/stimNo94r6c17v3.8.jpg	 l	 1.600	 GoodTrial	 3.8	 bl
28	 6	 1	 left	 LineStimuli//3.8/stimNo119r9c8v3.8.jpg	 l	 1.655	 GoodTrial	 3.8	 bl
29	 6	 0	 x	 LineStimuli//3.8/stimNo152r0c0v3.8.jpg	 r	 3.307	 GoodTrial	 3.8	 bl
30	 6	 1	 right	 LineStimuli//3.8/stimNo87r6c13v3.8.jpg	 l	 1.866	 GoodTrial	 3.8	 bl
31	 6	 0	 x	 LineStimuli//3.8/stimNo123r0c0v3.8.jpg	 r	 1.624	 GoodTrial	 3.8	 bl
32	 6	 0	 x	 LineStimuli//3.8/stimNo146r0c0v3.8.jpg	 r	 2.316	 GoodTrial	 3.8	 bl
33	 6	 1	 left	 LineStimuli//3.8/stimNo83r9c9v3.8.jpg	 l	 1.668	 GoodTrial	 3.8	 bl
34	 6	 0	 x	 LineStimuli//3.8/stimNo147r0c0v3.8.jpg	 r	 1.587	 GoodTrial	 3.8	 bl
35	 6	 0	 x	 LineStimuli//3.8/stimNo143r0c0v3.8.jpg	 r	 1.670	 GoodTrial	 3.8	 bl
36	 6	 0	 x	 LineStimuli//3.8/stimNo159r0c0v3.8.jpg	 r	 1.607	 GoodTrial	 3.8	 bl
37	 6	 0	 x	 LineStimuli//3.8/stimNo125r0c0v3.8.jpg	 r	 1.678	 GoodTrial	 3.8	 bl
38	 6	 0	 x	 LineStimuli//3.8/stimNo135r0c0v3.8.jpg	 r	 1.544	 GoodTrial	 3.8	 bl
39	 6	 1	 right	 LineStimuli//3.8/stimNo112r12c16v3.8.jpg	 l	 1.566	 GoodTrial	 3.8	 bl
40	 6	 0	 x	 LineStimuli//3.8/stimNo155r0c0v3.8.jpg	 r	 1.792	 GoodTrial	 3.8	 bl
41	 6	 0	 x	 LineStimuli//3.8/stimNo151r0c0v3.8.jpg	 r	 1.884	 GoodTrial	 3.8	 bl
42	 6	 1	 right	 LineStimuli//3.8/stimNo107r9c18v3.8.jpg	 l	 2.008	 GoodTrial	 3.8	 bl
43	 6	 1	 left	 LineStimuli//3.8/stimNo116r7c3v3.8.jpg	 l	 1.687	 GoodTrial	 3.8	 bl
44	 6	 1	 right	 LineStimuli//3.8/stimNo101r12c17v3.8.jpg	 l	 1.736	 GoodTrial	 3.8	 bl
45	 6	 0	 x	 LineStimuli//3.8/stimNo130r0c0v3.8.jpg	 r	 1.633	 GoodTrial	 3.8	 bl
46	 6	 1	 right	 LineStimuli//3.8/stimNo99r2c13v3.8.jpg	 r	 1.623	 GoodTrial	 3.8	 bl
47	 6	 1	 right	 LineStimuli//3.8/stimNo102r10c17v3.8.jpg	 l	 2.143	 GoodTrial	 3.8	 bl
48	 6	 0	 x	 LineStimuli//3.8/stimNo140r0c0v3.8.jpg	 r	 1.616	 GoodTrial	 3.8	 bl
49	 6	 1	 right	 LineStimuli//3.8/stimNo82r9c21v3.8.jpg	 r	 1.534	 GoodTrial	 3.8	 bl
50	 6	 1	 right	 LineStimuli//3.8/stimNo117r6c17v3.8.jpg	 l	 1.920	 GoodTrial	 3.8	 bl
1	 7	 0	 x	 LineStimuli//3.3/stimNo136r0c0v3.3.jpg	 r	 2.682	 GoodTrial	 3.3	 bl
2	 7	 0	 x	 LineStimuli//3.3/stimNo157r0c0v3.3.jpg	 r	 2.117	 GoodTrial	 3.3	 bl
3	 7	 0	 x	 LineStimuli//3.3/stimNo150r0c0v3.3.jpg	 r	 2.466	 GoodTrial	 3.3	 bl
4	 7	 1	 right	 LineStimuli//3.3/stimNo112r5c15v3.3.jpg	 l	 1.581	 GoodTrial	 3.3	 bl
5	 7	 0	 x	 LineStimuli//3.3/stimNo153r0c0v3.3.jpg	 r	 1.639	 GoodTrial	 3.3	 bl
6	 7	 0	 x	 LineStimuli//3.3/stimNo152r0c0v3.3.jpg	 r	 1.772	 GoodTrial	 3.3	 bl
7	 7	 1	 left	 LineStimuli//3.3/stimNo106r9c9v3.3.jpg	 l	 1.581	 GoodTrial	 3.3	 bl
8	 7	 0	 x	 LineStimuli//3.3/stimNo151r0c0v3.3.jpg	 r	 1.631	 GoodTrial	 3.3	 bl
9	 7	 1	 right	 LineStimuli//3.3/stimNo82r11c20v3.3.jpg	 l	 1.909	 GoodTrial	 3.3	 bl
10	 7	 1	 left	 LineStimuli//3.3/stimNo117r2c5v3.3.jpg	 l	 2.071	 GoodTrial	 3.3	 bl
11	 7	 0	 x	 LineStimuli//3.3/stimNo121r0c0v3.3.jpg	 r	 2.174	 GoodTrial	 3.3	 bl
12	 7	 1	 right	 LineStimuli//3.3/stimNo99r6c17v3.3.jpg	 l	 1.737	 GoodTrial	 3.3	 bl
13	 7	 0	 x	 LineStimuli//3.3/stimNo125r0c0v3.3.jpg	 r	 1.678	 GoodTrial	 3.3	 bl
14	 7	 0	 x	 LineStimuli//3.3/stimNo143r0c0v3.3.jpg	 r	 1.814	 GoodTrial	 3.3	 bl
15	 7	 0	 x	 LineStimuli//3.3/stimNo158r0c0v3.3.jpg	 r	 1.617	 GoodTrial	 3.3	 bl
16	 7	 0	 x	 LineStimuli//3.3/stimNo123r0c0v3.3.jpg	 r	 1.568	 GoodTrial	 3.3	 bl
17	 7	 1	 left	 LineStimuli//3.3/stimNo83r8c3v3.3.jpg	 l	 1.679	 GoodTrial	 3.3	 bl
18	 7	 1	 right	 LineStimuli//3.3/stimNo107r2c17v3.3.jpg	 l	 1.527	 GoodTrial	 3.3	 bl
19	 7	 0	 x	 LineStimuli//3.3/stimNo133r0c0v3.3.jpg	 r	 1.655	 GoodTrial	 3.3	 bl
20	 7	 1	 right	 LineStimuli//3.3/stimNo118r3c16v3.3.jpg	 l	 1.631	 GoodTrial	 3.3	 bl
21	 7	 1	 right	 LineStimuli//3.3/stimNo91r12c16v3.3.jpg	 l	 1.841	 GoodTrial	 3.3	 bl
22	 7	 1	 left	 LineStimuli//3.3/stimNo115r3c4v3.3.jpg	 l	 1.528	 GoodTrial	 3.3	 bl
23	 7	 1	 left	 LineStimuli//3.3/stimNo111r15c7v3.3.jpg	 l	 1.811	 GoodTrial	 3.3	 bl
24	 7	 1	 left	 LineStimuli//3.3/stimNo108r13c2v3.3.jpg	 l	 2.325	 GoodTrial	 3.3	 bl
25	 7	 0	 x	 LineStimuli//3.3/stimNo137r0c0v3.3.jpg	 l	 1.644	 GoodTrial	 3.3	 bl
26	 7	 0	 x	 LineStimuli//3.3/stimNo134r0c0v3.3.jpg	 r	 2.562	 GoodTrial	 3.3	 bl
27	 7	 0	 x	 LineStimuli//3.3/stimNo129r0c0v3.3.jpg	 r	 1.557	 GoodTrial	 3.3	 bl
28	 7	 1	 right	 LineStimuli//3.3/stimNo120r8c14v3.3.jpg	 r	 1.904	 GoodTrial	 3.3	 bl
29	 7	 1	 right	 LineStimuli//3.3/stimNo113r13c15v3.3.jpg	 l	 1.760	 GoodTrial	 3.3	 bl
30	 7	 0	 x	 LineStimuli//3.3/stimNo138r0c0v3.3.jpg	 r	 2.244	 GoodTrial	 3.3	 bl
31	 7	 1	 left	 LineStimuli//3.3/stimNo119r15c7v3.3.jpg	 r	 1.932	 GoodTrial	 3.3	 bl
32	 7	 1	 left	 LineStimuli//3.3/stimNo103r6c6v3.3.jpg	 l	 2.589	 GoodTrial	 3.3	 bl
33	 7	 0	 x	 LineStimuli//3.3/stimNo140r0c0v3.3.jpg	 r	 1.648	 GoodTrial	 3.3	 bl
34	 7	 1	 right	 LineStimuli//3.3/stimNo87r15c13v3.3.jpg	 l	 1.826	 GoodTrial	 3.3	 bl
35	 7	 0	 x	 LineStimuli//3.3/stimNo156r0c0v3.3.jpg	 r	 1.568	 GoodTrial	 3.3	 bl
36	 7	 1	 left	 LineStimuli//3.3/stimNo95r15c8v3.3.jpg	 l	 2.454	 GoodTrial	 3.3	 bl
37	 7	 0	 x	 LineStimuli//3.3/stimNo142r0c0v3.3.jpg	 r	 1.685	 GoodTrial	 3.3	 bl
38	 7	 0	 x	 LineStimuli//3.3/stimNo147r0c0v3.3.jpg	 r	 1.591	 GoodTrial	 3.3	 bl
39	 7	 1	 right	 LineStimuli//3.3/stimNo98r4c21v3.3.jpg	 l	 1.645	 GoodTrial	 3.3	 bl
40	 7	 0	 x	 LineStimuli//3.3/stimNo141r0c0v3.3.jpg	 r	 1.529	 GoodTrial	 3.3	 bl
41	 7	 1	 right	 LineStimuli//3.3/stimNo88r9c14v3.3.jpg	 l	 1.809	 GoodTrial	 3.3	 bl
42	 7	 1	 left	 LineStimuli//3.3/stimNo110r4c3v3.3.jpg	 r	 1.621	 GoodTrial	 3.3	 bl
43	 7	 1	 left	 LineStimuli//3.3/stimNo100r3c3v3.3.jpg	 l	 1.935	 GoodTrial	 3.3	 bl
44	 7	 1	 right	 LineStimuli//3.3/stimNo97r6c13v3.3.jpg	 l	 1.596	 GoodTrial	 3.3	 bl
45	 7	 0	 x	 LineStimuli//3.3/stimNo127r0c0v3.3.jpg	 r	 2.972	 GoodTrial	 3.3	 bl
46	 7	 0	 x	 LineStimuli//3.3/stimNo149r0c0v3.3.jpg	 l	 1.843	 GoodTrial	 3.3	 bl
47	 7	 0	 x	 LineStimuli//3.3/stimNo124r0c0v3.3.jpg	 r	 1.664	 GoodTrial	 3.3	 bl
48	 7	 1	 right	 LineStimuli//3.3/stimNo84r6c16v3.3.jpg	 l	 1.650	 GoodTrial	 3.3	 bl
49	 7	 0	 x	 LineStimuli//3.3/stimNo145r0c0v3.3.jpg	 r	 1.573	 GoodTrial	 3.3	 bl
50	 7	 1	 right	 LineStimuli//3.3/stimNo102r13c13v3.3.jpg	 r	 1.809	 GoodTrial	 3.3	 bl
