Trial	Block	Target_pr	Target_side	Name	Key	RT	Message	Block_Type	Condition
1	 1	 0	 x	 LineStimuli//3.3/stimNo129r0c0v3.3.jpg	 r	 1.821	 GoodTrial	 3.3	 bl
2	 1	 0	 x	 LineStimuli//3.3/stimNo124r0c0v3.3.jpg	 r	 1.749	 GoodTrial	 3.3	 bl
3	 1	 1	 left	 LineStimuli//3.3/stimNo100r3c3v3.3.jpg	 l	 1.527	 GoodTrial	 3.3	 bl
4	 1	 1	 left	 LineStimuli//3.3/stimNo85r6c4v3.3.jpg	 l	 1.674	 GoodTrial	 3.3	 bl
5	 1	 0	 x	 LineStimuli//3.3/stimNo145r0c0v3.3.jpg	 r	 2.016	 GoodTrial	 3.3	 bl
6	 1	 0	 x	 LineStimuli//3.3/stimNo128r0c0v3.3.jpg	 r	 1.727	 GoodTrial	 3.3	 bl
7	 1	 1	 right	 LineStimuli//3.3/stimNo89r5c21v3.3.jpg	 l	 1.793	 GoodTrial	 3.3	 bl
8	 1	 1	 right	 LineStimuli//3.3/stimNo113r13c15v3.3.jpg	 l	 1.610	 GoodTrial	 3.3	 bl
9	 1	 1	 right	 LineStimuli//3.3/stimNo112r5c15v3.3.jpg	 l	 1.568	 GoodTrial	 3.3	 bl
10	 1	 0	 x	 LineStimuli//3.3/stimNo153r0c0v3.3.jpg	 r	 2.408	 GoodTrial	 3.3	 bl
11	 1	 0	 x	 LineStimuli//3.3/stimNo144r0c0v3.3.jpg	 r	 1.948	 GoodTrial	 3.3	 bl
12	 1	 0	 x	 LineStimuli//3.3/stimNo146r0c0v3.3.jpg	 r	 1.600	 GoodTrial	 3.3	 bl
13	 1	 0	 x	 LineStimuli//3.3/stimNo156r0c0v3.3.jpg	 r	 1.811	 GoodTrial	 3.3	 bl
14	 1	 0	 x	 LineStimuli//3.3/stimNo158r0c0v3.3.jpg	 r	 1.517	 GoodTrial	 3.3	 bl
15	 1	 0	 x	 LineStimuli//3.3/stimNo122r0c0v3.3.jpg	 r	 1.576	 GoodTrial	 3.3	 bl
16	 1	 0	 x	 LineStimuli//3.3/stimNo148r0c0v3.3.jpg	 r	 2.007	 GoodTrial	 3.3	 bl
17	 1	 0	 x	 LineStimuli//3.3/stimNo138r0c0v3.3.jpg	 r	 1.993	 GoodTrial	 3.3	 bl
18	 1	 0	 x	 LineStimuli//3.3/stimNo136r0c0v3.3.jpg	 r	 1.597	 GoodTrial	 3.3	 bl
19	 1	 1	 right	 LineStimuli//3.3/stimNo98r4c21v3.3.jpg	 l	 1.771	 GoodTrial	 3.3	 bl
20	 1	 0	 x	 LineStimuli//3.3/stimNo157r0c0v3.3.jpg	 r	 1.641	 GoodTrial	 3.3	 bl
21	 1	 1	 left	 LineStimuli//3.3/stimNo108r13c2v3.3.jpg	 l	 1.662	 GoodTrial	 3.3	 bl
22	 1	 0	 x	 LineStimuli//3.3/stimNo142r0c0v3.3.jpg	 r	 1.971	 GoodTrial	 3.3	 bl
23	 1	 1	 right	 LineStimuli//3.3/stimNo107r2c17v3.3.jpg	 l	 1.641	 GoodTrial	 3.3	 bl
24	 1	 0	 x	 LineStimuli//3.3/stimNo155r0c0v3.3.jpg	 r	 1.619	 GoodTrial	 3.3	 bl
25	 1	 1	 right	 LineStimuli//3.3/stimNo87r15c13v3.3.jpg	 l	 1.585	 GoodTrial	 3.3	 bl
26	 1	 0	 x	 LineStimuli//3.3/stimNo154r0c0v3.3.jpg	 r	 1.595	 GoodTrial	 3.3	 bl
27	 1	 0	 x	 LineStimuli//3.3/stimNo125r0c0v3.3.jpg	 r	 1.737	 GoodTrial	 3.3	 bl
28	 1	 1	 right	 LineStimuli//3.3/stimNo114r11c21v3.3.jpg	 r	 1.537	 GoodTrial	 3.3	 bl
29	 1	 0	 x	 LineStimuli//3.3/stimNo150r0c0v3.3.jpg	 r	 2.825	 GoodTrial	 3.3	 bl
30	 1	 0	 x	 LineStimuli//3.3/stimNo135r0c0v3.3.jpg	 r	 1.848	 GoodTrial	 3.3	 bl
31	 1	 1	 left	 LineStimuli//3.3/stimNo95r15c8v3.3.jpg	 l	 1.597	 GoodTrial	 3.3	 bl
32	 1	 1	 left	 LineStimuli//3.3/stimNo111r15c7v3.3.jpg	 l	 1.607	 GoodTrial	 3.3	 bl
33	 1	 1	 left	 LineStimuli//3.3/stimNo94r14c9v3.3.jpg	 l	 1.491	 GoodTrial	 3.3	 bl
34	 1	 1	 right	 LineStimuli//3.3/stimNo88r9c14v3.3.jpg	 l	 1.772	 GoodTrial	 3.3	 bl
35	 1	 0	 x	 LineStimuli//3.3/stimNo143r0c0v3.3.jpg	 r	 2.034	 GoodTrial	 3.3	 bl
36	 1	 1	 left	 LineStimuli//3.3/stimNo106r9c9v3.3.jpg	 l	 1.609	 GoodTrial	 3.3	 bl
37	 1	 0	 x	 LineStimuli//3.3/stimNo160r0c0v3.3.jpg	 r	 1.675	 GoodTrial	 3.3	 bl
38	 1	 1	 left	 LineStimuli//3.3/stimNo119r15c7v3.3.jpg	 l	 1.764	 GoodTrial	 3.3	 bl
39	 1	 1	 right	 LineStimuli//3.3/stimNo116r10c14v3.3.jpg	 l	 1.760	 GoodTrial	 3.3	 bl
40	 1	 0	 x	 LineStimuli//3.3/stimNo134r0c0v3.3.jpg	 r	 1.657	 GoodTrial	 3.3	 bl
41	 1	 0	 x	 LineStimuli//3.3/stimNo137r0c0v3.3.jpg	 r	 1.933	 GoodTrial	 3.3	 bl
42	 1	 0	 x	 LineStimuli//3.3/stimNo139r0c0v3.3.jpg	 r	 1.689	 GoodTrial	 3.3	 bl
43	 1	 1	 right	 LineStimuli//3.3/stimNo97r6c13v3.3.jpg	 l	 1.425	 GoodTrial	 3.3	 bl
44	 1	 1	 right	 LineStimuli//3.3/stimNo84r6c16v3.3.jpg	 l	 1.623	 GoodTrial	 3.3	 bl
45	 1	 1	 left	 LineStimuli//3.3/stimNo86r5c7v3.3.jpg	 l	 1.519	 GoodTrial	 3.3	 bl
46	 1	 1	 left	 LineStimuli//3.3/stimNo103r6c6v3.3.jpg	 l	 1.479	 GoodTrial	 3.3	 bl
47	 1	 1	 right	 LineStimuli//3.3/stimNo91r12c16v3.3.jpg	 l	 1.695	 GoodTrial	 3.3	 bl
48	 1	 0	 x	 LineStimuli//3.3/stimNo130r0c0v3.3.jpg	 r	 1.677	 GoodTrial	 3.3	 bl
49	 1	 1	 right	 LineStimuli//3.3/stimNo99r6c17v3.3.jpg	 l	 1.647	 GoodTrial	 3.3	 bl
50	 1	 0	 x	 LineStimuli//3.3/stimNo123r0c0v3.3.jpg	 r	 1.700	 GoodTrial	 3.3	 bl
1	 2	 1	 right	 LineStimuli//2.3/stimNo111r11c21v2.3.jpg	 l	 1.657	 GoodTrial	 2.3	 bl
2	 2	 0	 x	 LineStimuli//2.3/stimNo137r0c0v2.3.jpg	 r	 1.666	 GoodTrial	 2.3	 bl
3	 2	 1	 left	 LineStimuli//2.3/stimNo83r14c4v2.3.jpg	 l	 1.672	 GoodTrial	 2.3	 bl
4	 2	 0	 x	 LineStimuli//2.3/stimNo123r0c0v2.3.jpg	 r	 1.560	 GoodTrial	 2.3	 bl
5	 2	 1	 left	 LineStimuli//2.3/stimNo108r15c6v2.3.jpg	 l	 1.672	 GoodTrial	 2.3	 bl
6	 2	 1	 right	 LineStimuli//2.3/stimNo118r4c17v2.3.jpg	 l	 1.752	 GoodTrial	 2.3	 bl
7	 2	 1	 left	 LineStimuli//2.3/stimNo115r7c3v2.3.jpg	 l	 1.577	 GoodTrial	 2.3	 bl
8	 2	 1	 right	 LineStimuli//2.3/stimNo91r11c20v2.3.jpg	 l	 1.727	 GoodTrial	 2.3	 bl
9	 2	 0	 x	 LineStimuli//2.3/stimNo141r0c0v2.3.jpg	 r	 1.650	 GoodTrial	 2.3	 bl
10	 2	 1	 right	 LineStimuli//2.3/stimNo92r10c17v2.3.jpg	 l	 1.865	 GoodTrial	 2.3	 bl
11	 2	 1	 left	 LineStimuli//2.3/stimNo114r7c8v2.3.jpg	 l	 1.584	 GoodTrial	 2.3	 bl
12	 2	 0	 x	 LineStimuli//2.3/stimNo122r0c0v2.3.jpg	 r	 1.705	 GoodTrial	 2.3	 bl
13	 2	 1	 left	 LineStimuli//2.3/stimNo86r8c9v2.3.jpg	 l	 1.566	 GoodTrial	 2.3	 bl
14	 2	 1	 right	 LineStimuli//2.3/stimNo85r4c15v2.3.jpg	 l	 1.830	 GoodTrial	 2.3	 bl
15	 2	 0	 x	 LineStimuli//2.3/stimNo146r0c0v2.3.jpg	 r	 1.864	 GoodTrial	 2.3	 bl
16	 2	 1	 left	 LineStimuli//2.3/stimNo112r3c2v2.3.jpg	 l	 1.533	 GoodTrial	 2.3	 bl
17	 2	 1	 right	 LineStimuli//2.3/stimNo98r12c21v2.3.jpg	 l	 1.624	 GoodTrial	 2.3	 bl
18	 2	 0	 x	 LineStimuli//2.3/stimNo158r0c0v2.3.jpg	 r	 1.768	 GoodTrial	 2.3	 bl
19	 2	 0	 x	 LineStimuli//2.3/stimNo150r0c0v2.3.jpg	 r	 1.673	 GoodTrial	 2.3	 bl
20	 2	 0	 x	 LineStimuli//2.3/stimNo152r0c0v2.3.jpg	 r	 2.013	 GoodTrial	 2.3	 bl
21	 2	 0	 x	 LineStimuli//2.3/stimNo126r0c0v2.3.jpg	 r	 1.848	 GoodTrial	 2.3	 bl
22	 2	 1	 left	 LineStimuli//2.3/stimNo116r2c2v2.3.jpg	 l	 1.724	 GoodTrial	 2.3	 bl
23	 2	 1	 right	 LineStimuli//2.3/stimNo120r4c17v2.3.jpg	 l	 1.760	 GoodTrial	 2.3	 bl
24	 2	 1	 left	 LineStimuli//2.3/stimNo104r2c4v2.3.jpg	 l	 1.618	 GoodTrial	 2.3	 bl
25	 2	 1	 left	 LineStimuli//2.3/stimNo119r3c2v2.3.jpg	 l	 1.620	 GoodTrial	 2.3	 bl
26	 2	 0	 x	 LineStimuli//2.3/stimNo134r0c0v2.3.jpg	 r	 1.800	 GoodTrial	 2.3	 bl
27	 2	 1	 left	 LineStimuli//2.3/stimNo82r12c4v2.3.jpg	 l	 1.560	 GoodTrial	 2.3	 bl
28	 2	 0	 x	 LineStimuli//2.3/stimNo129r0c0v2.3.jpg	 r	 1.904	 GoodTrial	 2.3	 bl
29	 2	 1	 right	 LineStimuli//2.3/stimNo103r11c21v2.3.jpg	 l	 1.661	 GoodTrial	 2.3	 bl
30	 2	 1	 left	 LineStimuli//2.3/stimNo100r8c6v2.3.jpg	 l	 1.626	 GoodTrial	 2.3	 bl
31	 2	 1	 right	 LineStimuli//2.3/stimNo93r4c16v2.3.jpg	 l	 1.626	 GoodTrial	 2.3	 bl
32	 2	 1	 right	 LineStimuli//2.3/stimNo84r15c14v2.3.jpg	 l	 1.616	 GoodTrial	 2.3	 bl
33	 2	 0	 x	 LineStimuli//2.3/stimNo156r0c0v2.3.jpg	 r	 2.057	 GoodTrial	 2.3	 bl
34	 2	 0	 x	 LineStimuli//2.3/stimNo138r0c0v2.3.jpg	 r	 1.739	 GoodTrial	 2.3	 bl
35	 2	 1	 right	 LineStimuli//2.3/stimNo89r8c21v2.3.jpg	 r	 1.697	 GoodTrial	 2.3	 bl
36	 2	 1	 left	 LineStimuli//2.3/stimNo95r13c9v2.3.jpg	 r	 2.296	 GoodTrial	 2.3	 bl
37	 2	 1	 left	 LineStimuli//2.3/stimNo88r15c2v2.3.jpg	 l	 1.720	 GoodTrial	 2.3	 bl
38	 2	 1	 left	 LineStimuli//2.3/stimNo81r4c3v2.3.jpg	 l	 1.505	 GoodTrial	 2.3	 bl
39	 2	 0	 x	 LineStimuli//2.3/stimNo121r0c0v2.3.jpg	 r	 1.595	 GoodTrial	 2.3	 bl
40	 2	 1	 right	 LineStimuli//2.3/stimNo99r2c13v2.3.jpg	 l	 1.673	 GoodTrial	 2.3	 bl
41	 2	 1	 right	 LineStimuli//2.3/stimNo107r11c15v2.3.jpg	 l	 1.623	 GoodTrial	 2.3	 bl
42	 2	 0	 x	 LineStimuli//2.3/stimNo160r0c0v2.3.jpg	 r	 2.168	 GoodTrial	 2.3	 bl
43	 2	 1	 right	 LineStimuli//2.3/stimNo90r14c21v2.3.jpg	 l	 1.922	 GoodTrial	 2.3	 bl
44	 2	 1	 left	 LineStimuli//2.3/stimNo117r11c8v2.3.jpg	 l	 1.595	 GoodTrial	 2.3	 bl
45	 2	 0	 x	 LineStimuli//2.3/stimNo143r0c0v2.3.jpg	 r	 2.199	 GoodTrial	 2.3	 bl
46	 2	 1	 left	 LineStimuli//2.3/stimNo106r9c9v2.3.jpg	 l	 1.626	 GoodTrial	 2.3	 bl
47	 2	 0	 x	 LineStimuli//2.3/stimNo147r0c0v2.3.jpg	 r	 1.972	 GoodTrial	 2.3	 bl
48	 2	 1	 right	 LineStimuli//2.3/stimNo87r13c19v2.3.jpg	 l	 1.800	 GoodTrial	 2.3	 bl
49	 2	 0	 x	 LineStimuli//2.3/stimNo125r0c0v2.3.jpg	 r	 1.985	 GoodTrial	 2.3	 bl
50	 2	 1	 right	 LineStimuli//2.3/stimNo105r14c14v2.3.jpg	 l	 1.575	 GoodTrial	 2.3	 bl
1	 3	 0	 x	 LineStimuli//1.5/stimNo134r0c0v1.5.jpg	 l	 2.035	 GoodTrial	 1.5	 bl
2	 3	 1	 right	 LineStimuli//1.5/stimNo105r3c18v1.5.jpg	 r	 2.978	 GoodTrial	 1.5	 bl
3	 3	 1	 right	 LineStimuli//1.5/stimNo95r6c14v1.5.jpg	 r	 1.981	 GoodTrial	 1.5	 bl
4	 3	 0	 x	 LineStimuli//1.5/stimNo130r0c0v1.5.jpg	 r	 3.983	 GoodTrial	 1.5	 bl
5	 3	 1	 right	 LineStimuli//1.5/stimNo90r3c15v1.5.jpg	 r	 0.439	 EARLY_RESPONSE	 1.5	 bl
6	 3	 1	 left	 LineStimuli//1.5/stimNo89r8c9v1.5.jpg	 l	 2.573	 GoodTrial	 1.5	 bl
7	 3	 1	 right	 LineStimuli//1.5/stimNo84r3c18v1.5.jpg	 r	 1.793	 GoodTrial	 1.5	 bl
8	 3	 1	 right	 LineStimuli//1.5/stimNo86r6c16v1.5.jpg	 r	 3.585	 GoodTrial	 1.5	 bl
9	 3	 0	 x	 LineStimuli//1.5/stimNo140r0c0v1.5.jpg	 r	 2.704	 GoodTrial	 1.5	 bl
10	 3	 1	 left	 LineStimuli//1.5/stimNo88r6c7v1.5.jpg	 r	 1.890	 GoodTrial	 1.5	 bl
11	 3	 0	 x	 LineStimuli//1.5/stimNo125r0c0v1.5.jpg	 r	 2.632	 GoodTrial	 1.5	 bl
12	 3	 0	 x	 LineStimuli//1.5/stimNo139r0c0v1.5.jpg	 r	 2.799	 GoodTrial	 1.5	 bl
13	 3	 1	 right	 LineStimuli//1.5/stimNo108r13c15v1.5.jpg	 r	 2.816	 GoodTrial	 1.5	 bl
14	 3	 0	 x	 LineStimuli//1.5/stimNo141r0c0v1.5.jpg	 l	 1.790	 GoodTrial	 1.5	 bl
15	 3	 0	 x	 LineStimuli//1.5/stimNo156r0c0v1.5.jpg	 l	 5.908	 GoodTrial	 1.5	 bl
16	 3	 0	 x	 LineStimuli//1.5/stimNo160r0c0v1.5.jpg	 r	 3.874	 GoodTrial	 1.5	 bl
17	 3	 0	 x	 LineStimuli//1.5/stimNo154r0c0v1.5.jpg	 r	 2.982	 GoodTrial	 1.5	 bl
18	 3	 0	 x	 LineStimuli//1.5/stimNo149r0c0v1.5.jpg	 r	 2.365	 GoodTrial	 1.5	 bl
19	 3	 1	 left	 LineStimuli//1.5/stimNo110r7c3v1.5.jpg	 r	 2.537	 GoodTrial	 1.5	 bl
20	 3	 0	 x	 LineStimuli//1.5/stimNo131r0c0v1.5.jpg	 r	 4.392	 GoodTrial	 1.5	 bl
21	 3	 1	 right	 LineStimuli//1.5/stimNo81r6c17v1.5.jpg	 r	 2.084	 GoodTrial	 1.5	 bl
22	 3	 1	 right	 LineStimuli//1.5/stimNo111r7c17v1.5.jpg	 l	 1.482	 GoodTrial	 1.5	 bl
23	 3	 1	 left	 LineStimuli//1.5/stimNo114r4c4v1.5.jpg	 l	 1.472	 GoodTrial	 1.5	 bl
24	 3	 1	 left	 LineStimuli//1.5/stimNo113r4c4v1.5.jpg	 l	 1.943	 GoodTrial	 1.5	 bl
25	 3	 1	 right	 LineStimuli//1.5/stimNo115r14c18v1.5.jpg	 r	 4.294	 GoodTrial	 1.5	 bl
26	 3	 0	 x	 LineStimuli//1.5/stimNo158r0c0v1.5.jpg	 l	 1.781	 GoodTrial	 1.5	 bl
27	 3	 0	 x	 LineStimuli//1.5/stimNo143r0c0v1.5.jpg	 l	 2.138	 GoodTrial	 1.5	 bl
28	 3	 1	 left	 LineStimuli//1.5/stimNo117r7c8v1.5.jpg	 r	 4.281	 GoodTrial	 1.5	 bl
29	 3	 1	 right	 LineStimuli//1.5/stimNo92r6c18v1.5.jpg	 l	 1.913	 GoodTrial	 1.5	 bl
30	 3	 0	 x	 LineStimuli//1.5/stimNo129r0c0v1.5.jpg	 r	 2.168	 GoodTrial	 1.5	 bl
31	 3	 0	 x	 LineStimuli//1.5/stimNo136r0c0v1.5.jpg	 x	 2.265	 GoodTrial	 1.5	 bl
32	 3	 1	 left	 LineStimuli//1.5/stimNo91r9c3v1.5.jpg	 l	 2.158	 GoodTrial	 1.5	 bl
33	 3	 1	 right	 LineStimuli//1.5/stimNo119r6c19v1.5.jpg	 r	 3.986	 GoodTrial	 1.5	 bl
34	 3	 0	 x	 LineStimuli//1.5/stimNo128r0c0v1.5.jpg	 r	 3.642	 GoodTrial	 1.5	 bl
35	 3	 0	 x	 LineStimuli//1.5/stimNo151r0c0v1.5.jpg	 r	 4.280	 GoodTrial	 1.5	 bl
36	 3	 1	 left	 LineStimuli//1.5/stimNo109r8c6v1.5.jpg	 r	 2.123	 GoodTrial	 1.5	 bl
37	 3	 0	 x	 LineStimuli//1.5/stimNo153r0c0v1.5.jpg	 l	 1.503	 GoodTrial	 1.5	 bl
38	 3	 1	 right	 LineStimuli//1.5/stimNo104r5c18v1.5.jpg	 l	 2.465	 GoodTrial	 1.5	 bl
39	 3	 1	 right	 LineStimuli//1.5/stimNo82r11c15v1.5.jpg	 r	 4.097	 GoodTrial	 1.5	 bl
40	 3	 1	 right	 LineStimuli//1.5/stimNo100r6c20v1.5.jpg	 r	 2.391	 GoodTrial	 1.5	 bl
41	 3	 0	 x	 LineStimuli//1.5/stimNo135r0c0v1.5.jpg	 r	 2.235	 GoodTrial	 1.5	 bl
42	 3	 0	 x	 LineStimuli//1.5/stimNo146r0c0v1.5.jpg	 r	 1.720	 GoodTrial	 1.5	 bl
43	 3	 0	 x	 LineStimuli//1.5/stimNo142r0c0v1.5.jpg	 r	 2.367	 GoodTrial	 1.5	 bl
44	 3	 1	 right	 LineStimuli//1.5/stimNo118r9c20v1.5.jpg	 l	 2.684	 GoodTrial	 1.5	 bl
45	 3	 1	 left	 LineStimuli//1.5/stimNo116r7c7v1.5.jpg	 r	 3.096	 GoodTrial	 1.5	 bl
46	 3	 0	 x	 LineStimuli//1.5/stimNo127r0c0v1.5.jpg	 r	 2.397	 GoodTrial	 1.5	 bl
47	 3	 0	 x	 LineStimuli//1.5/stimNo148r0c0v1.5.jpg	 r	 1.896	 GoodTrial	 1.5	 bl
48	 3	 0	 x	 LineStimuli//1.5/stimNo145r0c0v1.5.jpg	 r	 1.836	 GoodTrial	 1.5	 bl
49	 3	 1	 left	 LineStimuli//1.5/stimNo99r10c3v1.5.jpg	 r	 3.744	 GoodTrial	 1.5	 bl
50	 3	 0	 x	 LineStimuli//1.5/stimNo124r0c0v1.5.jpg	 r	 3.512	 GoodTrial	 1.5	 bl
1	 4	 1	 right	 LineStimuli//4.3/stimNo82r7c18v4.3.jpg	 l	 1.684	 GoodTrial	 4.3	 bl
2	 4	 1	 right	 LineStimuli//4.3/stimNo115r10c18v4.3.jpg	 l	 1.516	 GoodTrial	 4.3	 bl
3	 4	 1	 left	 LineStimuli//4.3/stimNo93r9c9v4.3.jpg	 l	 1.480	 GoodTrial	 4.3	 bl
4	 4	 0	 x	 LineStimuli//4.3/stimNo125r0c0v4.3.jpg	 r	 2.342	 GoodTrial	 4.3	 bl
5	 4	 1	 right	 LineStimuli//4.3/stimNo120r8c18v4.3.jpg	 l	 1.663	 GoodTrial	 4.3	 bl
6	 4	 1	 right	 LineStimuli//4.3/stimNo96r4c19v4.3.jpg	 l	 1.628	 GoodTrial	 4.3	 bl
7	 4	 0	 x	 LineStimuli//4.3/stimNo147r0c0v4.3.jpg	 r	 1.950	 GoodTrial	 4.3	 bl
8	 4	 0	 x	 LineStimuli//4.3/stimNo131r0c0v4.3.jpg	 r	 2.073	 GoodTrial	 4.3	 bl
9	 4	 1	 left	 LineStimuli//4.3/stimNo103r10c4v4.3.jpg	 l	 1.585	 GoodTrial	 4.3	 bl
10	 4	 1	 right	 LineStimuli//4.3/stimNo102r10c19v4.3.jpg	 l	 1.692	 GoodTrial	 4.3	 bl
11	 4	 1	 right	 LineStimuli//4.3/stimNo117r10c21v4.3.jpg	 l	 1.627	 GoodTrial	 4.3	 bl
12	 4	 0	 x	 LineStimuli//4.3/stimNo124r0c0v4.3.jpg	 r	 2.057	 GoodTrial	 4.3	 bl
13	 4	 0	 x	 LineStimuli//4.3/stimNo150r0c0v4.3.jpg	 r	 1.758	 GoodTrial	 4.3	 bl
14	 4	 0	 x	 LineStimuli//4.3/stimNo154r0c0v4.3.jpg	 r	 1.900	 GoodTrial	 4.3	 bl
15	 4	 0	 x	 LineStimuli//4.3/stimNo137r0c0v4.3.jpg	 r	 1.984	 GoodTrial	 4.3	 bl
16	 4	 0	 x	 LineStimuli//4.3/stimNo148r0c0v4.3.jpg	 r	 1.801	 GoodTrial	 4.3	 bl
17	 4	 0	 x	 LineStimuli//4.3/stimNo155r0c0v4.3.jpg	 r	 1.943	 GoodTrial	 4.3	 bl
18	 4	 0	 x	 LineStimuli//4.3/stimNo135r0c0v4.3.jpg	 r	 1.930	 GoodTrial	 4.3	 bl
19	 4	 0	 x	 LineStimuli//4.3/stimNo145r0c0v4.3.jpg	 r	 1.817	 GoodTrial	 4.3	 bl
20	 4	 0	 x	 LineStimuli//4.3/stimNo151r0c0v4.3.jpg	 r	 1.881	 GoodTrial	 4.3	 bl
21	 4	 1	 left	 LineStimuli//4.3/stimNo95r11c9v4.3.jpg	 l	 1.728	 GoodTrial	 4.3	 bl
22	 4	 0	 x	 LineStimuli//4.3/stimNo128r0c0v4.3.jpg	 r	 1.777	 GoodTrial	 4.3	 bl
23	 4	 1	 right	 LineStimuli//4.3/stimNo109r15c15v4.3.jpg	 l	 1.565	 GoodTrial	 4.3	 bl
24	 4	 1	 left	 LineStimuli//4.3/stimNo105r14c6v4.3.jpg	 l	 1.527	 GoodTrial	 4.3	 bl
25	 4	 1	 right	 LineStimuli//4.3/stimNo81r10c14v4.3.jpg	 l	 1.787	 GoodTrial	 4.3	 bl
26	 4	 0	 x	 LineStimuli//4.3/stimNo142r0c0v4.3.jpg	 r	 1.829	 GoodTrial	 4.3	 bl
27	 4	 0	 x	 LineStimuli//4.3/stimNo127r0c0v4.3.jpg	 r	 1.512	 GoodTrial	 4.3	 bl
28	 4	 0	 x	 LineStimuli//4.3/stimNo139r0c0v4.3.jpg	 r	 2.661	 GoodTrial	 4.3	 bl
29	 4	 1	 right	 LineStimuli//4.3/stimNo92r2c20v4.3.jpg	 l	 1.578	 GoodTrial	 4.3	 bl
30	 4	 0	 x	 LineStimuli//4.3/stimNo158r0c0v4.3.jpg	 r	 1.519	 GoodTrial	 4.3	 bl
31	 4	 0	 x	 LineStimuli//4.3/stimNo144r0c0v4.3.jpg	 r	 1.592	 GoodTrial	 4.3	 bl
32	 4	 1	 right	 LineStimuli//4.3/stimNo116r5c13v4.3.jpg	 l	 1.520	 GoodTrial	 4.3	 bl
33	 4	 0	 x	 LineStimuli//4.3/stimNo160r0c0v4.3.jpg	 r	 1.872	 GoodTrial	 4.3	 bl
34	 4	 1	 right	 LineStimuli//4.3/stimNo89r3c17v4.3.jpg	 l	 1.617	 GoodTrial	 4.3	 bl
35	 4	 0	 x	 LineStimuli//4.3/stimNo149r0c0v4.3.jpg	 r	 1.651	 GoodTrial	 4.3	 bl
36	 4	 0	 x	 LineStimuli//4.3/stimNo159r0c0v4.3.jpg	 r	 1.712	 GoodTrial	 4.3	 bl
37	 4	 0	 x	 LineStimuli//4.3/stimNo146r0c0v4.3.jpg	 r	 1.681	 GoodTrial	 4.3	 bl
38	 4	 1	 left	 LineStimuli//4.3/stimNo104r15c2v4.3.jpg	 l	 1.552	 GoodTrial	 4.3	 bl
39	 4	 1	 right	 LineStimuli//4.3/stimNo114r10c15v4.3.jpg	 l	 1.631	 GoodTrial	 4.3	 bl
40	 4	 1	 right	 LineStimuli//4.3/stimNo84r15c20v4.3.jpg	 l	 1.629	 GoodTrial	 4.3	 bl
41	 4	 1	 left	 LineStimuli//4.3/stimNo83r4c2v4.3.jpg	 l	 1.529	 GoodTrial	 4.3	 bl
42	 4	 0	 x	 LineStimuli//4.3/stimNo130r0c0v4.3.jpg	 r	 2.079	 GoodTrial	 4.3	 bl
43	 4	 0	 x	 LineStimuli//4.3/stimNo156r0c0v4.3.jpg	 r	 1.893	 GoodTrial	 4.3	 bl
44	 4	 0	 x	 LineStimuli//4.3/stimNo134r0c0v4.3.jpg	 r	 1.755	 GoodTrial	 4.3	 bl
45	 4	 1	 left	 LineStimuli//4.3/stimNo85r3c5v4.3.jpg	 l	 1.467	 GoodTrial	 4.3	 bl
46	 4	 0	 x	 LineStimuli//4.3/stimNo123r0c0v4.3.jpg	 r	 1.729	 GoodTrial	 4.3	 bl
47	 4	 1	 left	 LineStimuli//4.3/stimNo86r7c3v4.3.jpg	 l	 1.529	 GoodTrial	 4.3	 bl
48	 4	 0	 x	 LineStimuli//4.3/stimNo121r0c0v4.3.jpg	 r	 1.685	 GoodTrial	 4.3	 bl
49	 4	 1	 right	 LineStimuli//4.3/stimNo94r12c13v4.3.jpg	 l	 1.449	 GoodTrial	 4.3	 bl
50	 4	 0	 x	 LineStimuli//4.3/stimNo133r0c0v4.3.jpg	 r	 1.601	 GoodTrial	 4.3	 bl
1	 5	 1	 right	 LineStimuli//1.8/stimNo117r10c16v1.8.jpg	 l	 1.652	 GoodTrial	 1.8	 bl
2	 5	 1	 left	 LineStimuli//1.8/stimNo86r14c4v1.8.jpg	 r	 1.807	 GoodTrial	 1.8	 bl
3	 5	 1	 left	 LineStimuli//1.8/stimNo96r13c2v1.8.jpg	 r	 2.024	 GoodTrial	 1.8	 bl
4	 5	 0	 x	 LineStimuli//1.8/stimNo122r0c0v1.8.jpg	 r	 4.243	 GoodTrial	 1.8	 bl
5	 5	 1	 right	 LineStimuli//1.8/stimNo101r4c13v1.8.jpg	 r	 2.452	 GoodTrial	 1.8	 bl
6	 5	 0	 x	 LineStimuli//1.8/stimNo158r0c0v1.8.jpg	 r	 3.217	 GoodTrial	 1.8	 bl
7	 5	 1	 right	 LineStimuli//1.8/stimNo100r9c13v1.8.jpg	 r	 2.857	 GoodTrial	 1.8	 bl
8	 5	 0	 x	 LineStimuli//1.8/stimNo126r0c0v1.8.jpg	 r	 2.986	 GoodTrial	 1.8	 bl
9	 5	 1	 right	 LineStimuli//1.8/stimNo83r6c13v1.8.jpg	 r	 2.363	 GoodTrial	 1.8	 bl
10	 5	 0	 x	 LineStimuli//1.8/stimNo130r0c0v1.8.jpg	 r	 3.809	 GoodTrial	 1.8	 bl
11	 5	 1	 left	 LineStimuli//1.8/stimNo89r11c6v1.8.jpg	 x	 1.071	 GoodTrial	 1.8	 bl
12	 5	 0	 x	 LineStimuli//1.8/stimNo137r0c0v1.8.jpg	 r	 4.609	 GoodTrial	 1.8	 bl
13	 5	 1	 right	 LineStimuli//1.8/stimNo84r11c21v1.8.jpg	 r	 1.998	 GoodTrial	 1.8	 bl
14	 5	 0	 x	 LineStimuli//1.8/stimNo149r0c0v1.8.jpg	 r	 5.657	 GoodTrial	 1.8	 bl
15	 5	 0	 x	 LineStimuli//1.8/stimNo155r0c0v1.8.jpg	 r	 2.863	 GoodTrial	 1.8	 bl
16	 5	 0	 x	 LineStimuli//1.8/stimNo159r0c0v1.8.jpg	 r	 1.898	 GoodTrial	 1.8	 bl
17	 5	 0	 x	 LineStimuli//1.8/stimNo139r0c0v1.8.jpg	 r	 3.548	 GoodTrial	 1.8	 bl
18	 5	 1	 left	 LineStimuli//1.8/stimNo98r15c5v1.8.jpg	 r	 3.217	 GoodTrial	 1.8	 bl
19	 5	 1	 left	 LineStimuli//1.8/stimNo95r4c9v1.8.jpg	 r	 4.210	 GoodTrial	 1.8	 bl
20	 5	 1	 left	 LineStimuli//1.8/stimNo113r6c7v1.8.jpg	 l	 1.655	 GoodTrial	 1.8	 bl
21	 5	 1	 left	 LineStimuli//1.8/stimNo87r14c2v1.8.jpg	 l	 2.241	 GoodTrial	 1.8	 bl
22	 5	 0	 x	 LineStimuli//1.8/stimNo128r0c0v1.8.jpg	 r	 2.546	 GoodTrial	 1.8	 bl
23	 5	 1	 right	 LineStimuli//1.8/stimNo112r6c15v1.8.jpg	 l	 1.646	 GoodTrial	 1.8	 bl
24	 5	 0	 x	 LineStimuli//1.8/stimNo154r0c0v1.8.jpg	 r	 4.009	 GoodTrial	 1.8	 bl
25	 5	 0	 x	 LineStimuli//1.8/stimNo147r0c0v1.8.jpg	 r	 2.433	 GoodTrial	 1.8	 bl
26	 5	 0	 x	 LineStimuli//1.8/stimNo124r0c0v1.8.jpg	 r	 4.231	 GoodTrial	 1.8	 bl
27	 5	 1	 right	 LineStimuli//1.8/stimNo102r14c17v1.8.jpg	 l	 1.694	 GoodTrial	 1.8	 bl
28	 5	 1	 left	 LineStimuli//1.8/stimNo116r4c7v1.8.jpg	 r	 2.493	 GoodTrial	 1.8	 bl
29	 5	 0	 x	 LineStimuli//1.8/stimNo160r0c0v1.8.jpg	 r	 3.496	 GoodTrial	 1.8	 bl
30	 5	 1	 left	 LineStimuli//1.8/stimNo110r4c7v1.8.jpg	 l	 1.712	 GoodTrial	 1.8	 bl
31	 5	 1	 right	 LineStimuli//1.8/stimNo97r15c18v1.8.jpg	 r	 3.203	 GoodTrial	 1.8	 bl
32	 5	 0	 x	 LineStimuli//1.8/stimNo123r0c0v1.8.jpg	 r	 4.456	 GoodTrial	 1.8	 bl
33	 5	 1	 left	 LineStimuli//1.8/stimNo103r15c10v1.8.jpg	 l	 1.970	 GoodTrial	 1.8	 bl
34	 5	 0	 x	 LineStimuli//1.8/stimNo134r0c0v1.8.jpg	 r	 3.457	 GoodTrial	 1.8	 bl
35	 5	 0	 x	 LineStimuli//1.8/stimNo143r0c0v1.8.jpg	 r	 2.694	 GoodTrial	 1.8	 bl
36	 5	 1	 right	 LineStimuli//1.8/stimNo119r3c21v1.8.jpg	 r	 2.525	 GoodTrial	 1.8	 bl
37	 5	 0	 x	 LineStimuli//1.8/stimNo150r0c0v1.8.jpg	 r	 3.925	 GoodTrial	 1.8	 bl
38	 5	 1	 left	 LineStimuli//1.8/stimNo106r13c9v1.8.jpg	 r	 2.492	 GoodTrial	 1.8	 bl
39	 5	 1	 left	 LineStimuli//1.8/stimNo91r14c4v1.8.jpg	 r	 5.632	 GoodTrial	 1.8	 bl
40	 5	 0	 x	 LineStimuli//1.8/stimNo152r0c0v1.8.jpg	 r	 5.255	 GoodTrial	 1.8	 bl
41	 5	 1	 left	 LineStimuli//1.8/stimNo115r5c9v1.8.jpg	 l	 1.633	 GoodTrial	 1.8	 bl
42	 5	 0	 x	 LineStimuli//1.8/stimNo133r0c0v1.8.jpg	 r	 3.787	 GoodTrial	 1.8	 bl
43	 5	 0	 x	 LineStimuli//1.8/stimNo156r0c0v1.8.jpg	 r	 2.705	 GoodTrial	 1.8	 bl
44	 5	 0	 x	 LineStimuli//1.8/stimNo127r0c0v1.8.jpg	 r	 3.446	 GoodTrial	 1.8	 bl
45	 5	 1	 right	 LineStimuli//1.8/stimNo111r4c21v1.8.jpg	 r	 3.255	 GoodTrial	 1.8	 bl
46	 5	 0	 x	 LineStimuli//1.8/stimNo136r0c0v1.8.jpg	 r	 3.877	 GoodTrial	 1.8	 bl
47	 5	 0	 x	 LineStimuli//1.8/stimNo129r0c0v1.8.jpg	 r	 2.995	 GoodTrial	 1.8	 bl
48	 5	 1	 right	 LineStimuli//1.8/stimNo92r10c18v1.8.jpg	 l	 1.969	 GoodTrial	 1.8	 bl
49	 5	 1	 right	 LineStimuli//1.8/stimNo109r7c17v1.8.jpg	 l	 2.214	 GoodTrial	 1.8	 bl
50	 5	 1	 left	 LineStimuli//1.8/stimNo85r13c2v1.8.jpg	 l	 3.233	 GoodTrial	 1.8	 bl
1	 6	 1	 right	 LineStimuli//2.8/stimNo118r5c16v2.8.jpg	 l	 1.664	 GoodTrial	 2.8	 bl
2	 6	 0	 x	 LineStimuli//2.8/stimNo128r0c0v2.8.jpg	 r	 2.197	 GoodTrial	 2.8	 bl
3	 6	 1	 left	 LineStimuli//2.8/stimNo91r2c3v2.8.jpg	 l	 1.546	 GoodTrial	 2.8	 bl
4	 6	 1	 right	 LineStimuli//2.8/stimNo103r3c19v2.8.jpg	 l	 1.732	 GoodTrial	 2.8	 bl
5	 6	 1	 left	 LineStimuli//2.8/stimNo119r8c5v2.8.jpg	 l	 1.491	 GoodTrial	 2.8	 bl
6	 6	 1	 left	 LineStimuli//2.8/stimNo86r15c6v2.8.jpg	 l	 1.609	 GoodTrial	 2.8	 bl
7	 6	 0	 x	 LineStimuli//2.8/stimNo121r0c0v2.8.jpg	 r	 2.185	 GoodTrial	 2.8	 bl
8	 6	 0	 x	 LineStimuli//2.8/stimNo146r0c0v2.8.jpg	 r	 3.384	 GoodTrial	 2.8	 bl
9	 6	 1	 left	 LineStimuli//2.8/stimNo88r15c3v2.8.jpg	 l	 1.588	 GoodTrial	 2.8	 bl
10	 6	 0	 x	 LineStimuli//2.8/stimNo140r0c0v2.8.jpg	 r	 1.827	 GoodTrial	 2.8	 bl
11	 6	 0	 x	 LineStimuli//2.8/stimNo132r0c0v2.8.jpg	 r	 1.801	 GoodTrial	 2.8	 bl
12	 6	 0	 x	 LineStimuli//2.8/stimNo151r0c0v2.8.jpg	 r	 1.715	 GoodTrial	 2.8	 bl
13	 6	 1	 right	 LineStimuli//2.8/stimNo120r8c20v2.8.jpg	 l	 1.657	 GoodTrial	 2.8	 bl
14	 6	 1	 left	 LineStimuli//2.8/stimNo108r13c6v2.8.jpg	 l	 1.593	 GoodTrial	 2.8	 bl
15	 6	 1	 left	 LineStimuli//2.8/stimNo84r3c9v2.8.jpg	 l	 1.553	 GoodTrial	 2.8	 bl
16	 6	 1	 left	 LineStimuli//2.8/stimNo87r11c8v2.8.jpg	 l	 1.506	 GoodTrial	 2.8	 bl
17	 6	 1	 right	 LineStimuli//2.8/stimNo110r7c14v2.8.jpg	 l	 1.475	 GoodTrial	 2.8	 bl
18	 6	 1	 right	 LineStimuli//2.8/stimNo114r8c19v2.8.jpg	 l	 1.631	 GoodTrial	 2.8	 bl
19	 6	 0	 x	 LineStimuli//2.8/stimNo131r0c0v2.8.jpg	 r	 2.282	 GoodTrial	 2.8	 bl
20	 6	 1	 right	 LineStimuli//2.8/stimNo92r14c21v2.8.jpg	 l	 1.893	 GoodTrial	 2.8	 bl
21	 6	 0	 x	 LineStimuli//2.8/stimNo150r0c0v2.8.jpg	 r	 1.597	 GoodTrial	 2.8	 bl
22	 6	 0	 x	 LineStimuli//2.8/stimNo147r0c0v2.8.jpg	 r	 1.962	 GoodTrial	 2.8	 bl
23	 6	 1	 right	 LineStimuli//2.8/stimNo93r9c20v2.8.jpg	 l	 1.527	 GoodTrial	 2.8	 bl
24	 6	 0	 x	 LineStimuli//2.8/stimNo134r0c0v2.8.jpg	 r	 1.855	 GoodTrial	 2.8	 bl
25	 6	 0	 x	 LineStimuli//2.8/stimNo149r0c0v2.8.jpg	 r	 1.780	 GoodTrial	 2.8	 bl
26	 6	 0	 x	 LineStimuli//2.8/stimNo126r0c0v2.8.jpg	 r	 1.856	 GoodTrial	 2.8	 bl
27	 6	 1	 left	 LineStimuli//2.8/stimNo102r3c2v2.8.jpg	 l	 1.540	 GoodTrial	 2.8	 bl
28	 6	 0	 x	 LineStimuli//2.8/stimNo153r0c0v2.8.jpg	 r	 2.144	 GoodTrial	 2.8	 bl
29	 6	 1	 right	 LineStimuli//2.8/stimNo117r11c17v2.8.jpg	 l	 1.618	 GoodTrial	 2.8	 bl
30	 6	 0	 x	 LineStimuli//2.8/stimNo142r0c0v2.8.jpg	 r	 1.867	 GoodTrial	 2.8	 bl
31	 6	 1	 right	 LineStimuli//2.8/stimNo81r8c14v2.8.jpg	 l	 1.477	 GoodTrial	 2.8	 bl
32	 6	 0	 x	 LineStimuli//2.8/stimNo135r0c0v2.8.jpg	 r	 1.770	 GoodTrial	 2.8	 bl
33	 6	 1	 left	 LineStimuli//2.8/stimNo83r12c4v2.8.jpg	 l	 1.519	 GoodTrial	 2.8	 bl
34	 6	 0	 x	 LineStimuli//2.8/stimNo155r0c0v2.8.jpg	 r	 2.336	 GoodTrial	 2.8	 bl
35	 6	 0	 x	 LineStimuli//2.8/stimNo143r0c0v2.8.jpg	 r	 2.056	 GoodTrial	 2.8	 bl
36	 6	 1	 right	 LineStimuli//2.8/stimNo106r13c20v2.8.jpg	 l	 1.546	 GoodTrial	 2.8	 bl
37	 6	 1	 left	 LineStimuli//2.8/stimNo97r11c4v2.8.jpg	 l	 1.692	 GoodTrial	 2.8	 bl
38	 6	 0	 x	 LineStimuli//2.8/stimNo124r0c0v2.8.jpg	 r	 2.022	 GoodTrial	 2.8	 bl
39	 6	 0	 x	 LineStimuli//2.8/stimNo137r0c0v2.8.jpg	 r	 2.867	 GoodTrial	 2.8	 bl
40	 6	 1	 left	 LineStimuli//2.8/stimNo89r12c4v2.8.jpg	 l	 1.519	 GoodTrial	 2.8	 bl
41	 6	 1	 right	 LineStimuli//2.8/stimNo85r4c15v2.8.jpg	 l	 1.575	 GoodTrial	 2.8	 bl
42	 6	 0	 x	 LineStimuli//2.8/stimNo148r0c0v2.8.jpg	 r	 1.669	 GoodTrial	 2.8	 bl
43	 6	 1	 left	 LineStimuli//2.8/stimNo105r5c4v2.8.jpg	 l	 1.480	 GoodTrial	 2.8	 bl
44	 6	 1	 right	 LineStimuli//2.8/stimNo101r12c16v2.8.jpg	 l	 1.642	 GoodTrial	 2.8	 bl
45	 6	 1	 left	 LineStimuli//2.8/stimNo98r15c2v2.8.jpg	 l	 1.586	 GoodTrial	 2.8	 bl
46	 6	 1	 left	 LineStimuli//2.8/stimNo116r4c7v2.8.jpg	 l	 1.632	 GoodTrial	 2.8	 bl
47	 6	 0	 x	 LineStimuli//2.8/stimNo154r0c0v2.8.jpg	 r	 2.152	 GoodTrial	 2.8	 bl
48	 6	 0	 x	 LineStimuli//2.8/stimNo123r0c0v2.8.jpg	 r	 1.966	 GoodTrial	 2.8	 bl
49	 6	 0	 x	 LineStimuli//2.8/stimNo127r0c0v2.8.jpg	 r	 2.119	 GoodTrial	 2.8	 bl
50	 6	 0	 x	 LineStimuli//2.8/stimNo136r0c0v2.8.jpg	 r	 1.664	 GoodTrial	 2.8	 bl
1	 7	 1	 right	 LineStimuli//3.8/stimNo99r2c13v3.8.jpg	 l	 1.614	 GoodTrial	 3.8	 bl
2	 7	 1	 left	 LineStimuli//3.8/stimNo103r11c7v3.8.jpg	 l	 1.490	 GoodTrial	 3.8	 bl
3	 7	 0	 x	 LineStimuli//3.8/stimNo146r0c0v3.8.jpg	 r	 1.999	 GoodTrial	 3.8	 bl
4	 7	 1	 right	 LineStimuli//3.8/stimNo82r9c21v3.8.jpg	 l	 1.503	 GoodTrial	 3.8	 bl
5	 7	 1	 left	 LineStimuli//3.8/stimNo83r9c9v3.8.jpg	 l	 1.451	 GoodTrial	 3.8	 bl
6	 7	 0	 x	 LineStimuli//3.8/stimNo160r0c0v3.8.jpg	 r	 1.624	 GoodTrial	 3.8	 bl
7	 7	 0	 x	 LineStimuli//3.8/stimNo155r0c0v3.8.jpg	 r	 1.728	 GoodTrial	 3.8	 bl
8	 7	 1	 right	 LineStimuli//3.8/stimNo84r9c19v3.8.jpg	 l	 1.520	 GoodTrial	 3.8	 bl
9	 7	 0	 x	 LineStimuli//3.8/stimNo127r0c0v3.8.jpg	 r	 1.608	 GoodTrial	 3.8	 bl
10	 7	 1	 right	 LineStimuli//3.8/stimNo112r12c16v3.8.jpg	 l	 1.664	 GoodTrial	 3.8	 bl
11	 7	 1	 right	 LineStimuli//3.8/stimNo114r10c14v3.8.jpg	 l	 1.520	 GoodTrial	 3.8	 bl
12	 7	 1	 left	 LineStimuli//3.8/stimNo120r5c3v3.8.jpg	 l	 1.562	 GoodTrial	 3.8	 bl
13	 7	 0	 x	 LineStimuli//3.8/stimNo147r0c0v3.8.jpg	 r	 1.604	 GoodTrial	 3.8	 bl
14	 7	 1	 right	 LineStimuli//3.8/stimNo90r8c17v3.8.jpg	 l	 1.448	 GoodTrial	 3.8	 bl
15	 7	 0	 x	 LineStimuli//3.8/stimNo137r0c0v3.8.jpg	 r	 1.903	 GoodTrial	 3.8	 bl
16	 7	 0	 x	 LineStimuli//3.8/stimNo152r0c0v3.8.jpg	 r	 1.632	 GoodTrial	 3.8	 bl
17	 7	 0	 x	 LineStimuli//3.8/stimNo144r0c0v3.8.jpg	 r	 1.714	 GoodTrial	 3.8	 bl
18	 7	 1	 right	 LineStimuli//3.8/stimNo91r10c16v3.8.jpg	 l	 1.494	 GoodTrial	 3.8	 bl
19	 7	 0	 x	 LineStimuli//3.8/stimNo138r0c0v3.8.jpg	 r	 1.540	 GoodTrial	 3.8	 bl
20	 7	 0	 x	 LineStimuli//3.8/stimNo136r0c0v3.8.jpg	 r	 1.785	 GoodTrial	 3.8	 bl
21	 7	 0	 x	 LineStimuli//3.8/stimNo133r0c0v3.8.jpg	 r	 1.653	 GoodTrial	 3.8	 bl
22	 7	 0	 x	 LineStimuli//3.8/stimNo143r0c0v3.8.jpg	 r	 1.873	 GoodTrial	 3.8	 bl
23	 7	 0	 x	 LineStimuli//3.8/stimNo131r0c0v3.8.jpg	 r	 2.028	 GoodTrial	 3.8	 bl
24	 7	 0	 x	 LineStimuli//3.8/stimNo129r0c0v3.8.jpg	 r	 2.599	 GoodTrial	 3.8	 bl
25	 7	 1	 right	 LineStimuli//3.8/stimNo88r10c17v3.8.jpg	 l	 1.679	 GoodTrial	 3.8	 bl
26	 7	 0	 x	 LineStimuli//3.8/stimNo141r0c0v3.8.jpg	 r	 1.721	 GoodTrial	 3.8	 bl
27	 7	 0	 x	 LineStimuli//3.8/stimNo150r0c0v3.8.jpg	 r	 1.646	 GoodTrial	 3.8	 bl
28	 7	 0	 x	 LineStimuli//3.8/stimNo148r0c0v3.8.jpg	 r	 1.609	 GoodTrial	 3.8	 bl
29	 7	 1	 right	 LineStimuli//3.8/stimNo102r10c17v3.8.jpg	 l	 1.507	 GoodTrial	 3.8	 bl
30	 7	 0	 x	 LineStimuli//3.8/stimNo145r0c0v3.8.jpg	 r	 1.737	 GoodTrial	 3.8	 bl
31	 7	 0	 x	 LineStimuli//3.8/stimNo149r0c0v3.8.jpg	 r	 1.808	 GoodTrial	 3.8	 bl
32	 7	 0	 x	 LineStimuli//3.8/stimNo151r0c0v3.8.jpg	 r	 1.649	 GoodTrial	 3.8	 bl
33	 7	 1	 left	 LineStimuli//3.8/stimNo113r14c9v3.8.jpg	 l	 1.673	 GoodTrial	 3.8	 bl
34	 7	 1	 left	 LineStimuli//3.8/stimNo105r2c6v3.8.jpg	 l	 1.640	 GoodTrial	 3.8	 bl
35	 7	 1	 left	 LineStimuli//3.8/stimNo108r3c6v3.8.jpg	 l	 1.465	 GoodTrial	 3.8	 bl
36	 7	 0	 x	 LineStimuli//3.8/stimNo159r0c0v3.8.jpg	 r	 2.284	 GoodTrial	 3.8	 bl
37	 7	 1	 right	 LineStimuli//3.8/stimNo87r6c13v3.8.jpg	 l	 1.534	 GoodTrial	 3.8	 bl
38	 7	 1	 left	 LineStimuli//3.8/stimNo104r12c8v3.8.jpg	 l	 1.540	 GoodTrial	 3.8	 bl
39	 7	 0	 x	 LineStimuli//3.8/stimNo135r0c0v3.8.jpg	 r	 1.968	 GoodTrial	 3.8	 bl
40	 7	 1	 left	 LineStimuli//3.8/stimNo110r7c9v3.8.jpg	 l	 1.506	 GoodTrial	 3.8	 bl
41	 7	 1	 right	 LineStimuli//3.8/stimNo111r15c20v3.8.jpg	 l	 1.573	 GoodTrial	 3.8	 bl
42	 7	 1	 left	 LineStimuli//3.8/stimNo97r15c9v3.8.jpg	 l	 1.515	 GoodTrial	 3.8	 bl
43	 7	 0	 x	 LineStimuli//3.8/stimNo128r0c0v3.8.jpg	 r	 1.827	 GoodTrial	 3.8	 bl
44	 7	 1	 right	 LineStimuli//3.8/stimNo85r3c13v3.8.jpg	 l	 1.455	 GoodTrial	 3.8	 bl
45	 7	 1	 left	 LineStimuli//3.8/stimNo116r7c3v3.8.jpg	 l	 1.466	 GoodTrial	 3.8	 bl
46	 7	 0	 x	 LineStimuli//3.8/stimNo125r0c0v3.8.jpg	 r	 1.725	 GoodTrial	 3.8	 bl
47	 7	 0	 x	 LineStimuli//3.8/stimNo157r0c0v3.8.jpg	 r	 1.834	 GoodTrial	 3.8	 bl
48	 7	 1	 right	 LineStimuli//3.8/stimNo92r6c21v3.8.jpg	 l	 1.505	 GoodTrial	 3.8	 bl
49	 7	 0	 x	 LineStimuli//3.8/stimNo123r0c0v3.8.jpg	 r	 1.689	 GoodTrial	 3.8	 bl
50	 7	 1	 left	 LineStimuli//3.8/stimNo86r7c7v3.8.jpg	 l	 1.473	 GoodTrial	 3.8	 bl
