Trial	Block	Target_pr	Target_side	Name	Key	RT	Message	Block_Type	Condition
1	 1	 0	 x	 LineStimuli//2.8/stimNo131r0c0v2.8.jpg	 r	 25.789	 GoodTrial	 2.8	 bl
2	 1	 1	 right	 LineStimuli//2.8/stimNo103r3c19v2.8.jpg	 l	 1.550	 GoodTrial	 2.8	 bl
3	 1	 1	 left	 LineStimuli//2.8/stimNo108r13c6v2.8.jpg	 l	 1.856	 GoodTrial	 2.8	 bl
4	 1	 1	 left	 LineStimuli//2.8/stimNo113r9c5v2.8.jpg	 l	 1.550	 GoodTrial	 2.8	 bl
5	 1	 0	 x	 LineStimuli//2.8/stimNo126r0c0v2.8.jpg	 r	 2.185	 GoodTrial	 2.8	 bl
6	 1	 0	 x	 LineStimuli//2.8/stimNo147r0c0v2.8.jpg	 r	 2.590	 GoodTrial	 2.8	 bl
7	 1	 1	 left	 LineStimuli//2.8/stimNo104r8c6v2.8.jpg	 l	 1.767	 GoodTrial	 2.8	 bl
8	 1	 1	 right	 LineStimuli//2.8/stimNo112r13c17v2.8.jpg	 l	 1.685	 GoodTrial	 2.8	 bl
9	 1	 0	 x	 LineStimuli//2.8/stimNo127r0c0v2.8.jpg	 r	 2.426	 GoodTrial	 2.8	 bl
10	 1	 1	 left	 LineStimuli//2.8/stimNo119r8c5v2.8.jpg	 l	 1.671	 GoodTrial	 2.8	 bl
11	 1	 1	 right	 LineStimuli//2.8/stimNo101r12c16v2.8.jpg	 l	 1.609	 GoodTrial	 2.8	 bl
12	 1	 0	 x	 LineStimuli//2.8/stimNo132r0c0v2.8.jpg	 r	 2.027	 GoodTrial	 2.8	 bl
13	 1	 0	 x	 LineStimuli//2.8/stimNo153r0c0v2.8.jpg	 r	 2.963	 GoodTrial	 2.8	 bl
14	 1	 0	 x	 LineStimuli//2.8/stimNo144r0c0v2.8.jpg	 r	 2.994	 GoodTrial	 2.8	 bl
15	 1	 0	 x	 LineStimuli//2.8/stimNo141r0c0v2.8.jpg	 r	 2.801	 GoodTrial	 2.8	 bl
16	 1	 1	 left	 LineStimuli//2.8/stimNo84r3c9v2.8.jpg	 l	 1.614	 GoodTrial	 2.8	 bl
17	 1	 0	 x	 LineStimuli//2.8/stimNo138r0c0v2.8.jpg	 r	 2.167	 GoodTrial	 2.8	 bl
18	 1	 0	 x	 LineStimuli//2.8/stimNo143r0c0v2.8.jpg	 r	 2.910	 GoodTrial	 2.8	 bl
19	 1	 0	 x	 LineStimuli//2.8/stimNo152r0c0v2.8.jpg	 r	 2.311	 GoodTrial	 2.8	 bl
20	 1	 0	 x	 LineStimuli//2.8/stimNo145r0c0v2.8.jpg	 r	 2.540	 GoodTrial	 2.8	 bl
21	 1	 0	 x	 LineStimuli//2.8/stimNo150r0c0v2.8.jpg	 r	 2.420	 GoodTrial	 2.8	 bl
22	 1	 1	 left	 LineStimuli//2.8/stimNo83r12c4v2.8.jpg	 l	 1.637	 GoodTrial	 2.8	 bl
23	 1	 0	 x	 LineStimuli//2.8/stimNo148r0c0v2.8.jpg	 r	 2.717	 GoodTrial	 2.8	 bl
24	 1	 1	 right	 LineStimuli//2.8/stimNo118r5c16v2.8.jpg	 l	 1.599	 GoodTrial	 2.8	 bl
25	 1	 1	 right	 LineStimuli//2.8/stimNo100r8c13v2.8.jpg	 l	 1.902	 GoodTrial	 2.8	 bl
26	 1	 0	 x	 LineStimuli//2.8/stimNo125r0c0v2.8.jpg	 r	 2.395	 GoodTrial	 2.8	 bl
27	 1	 1	 left	 LineStimuli//2.8/stimNo97r11c4v2.8.jpg	 l	 1.556	 GoodTrial	 2.8	 bl
28	 1	 1	 right	 LineStimuli//2.8/stimNo115r9c14v2.8.jpg	 l	 1.658	 GoodTrial	 2.8	 bl
29	 1	 0	 x	 LineStimuli//2.8/stimNo122r0c0v2.8.jpg	 r	 2.206	 GoodTrial	 2.8	 bl
30	 1	 0	 x	 LineStimuli//2.8/stimNo151r0c0v2.8.jpg	 r	 2.516	 GoodTrial	 2.8	 bl
31	 1	 1	 right	 LineStimuli//2.8/stimNo114r8c19v2.8.jpg	 l	 1.534	 GoodTrial	 2.8	 bl
32	 1	 1	 left	 LineStimuli//2.8/stimNo107r5c6v2.8.jpg	 l	 1.584	 GoodTrial	 2.8	 bl
33	 1	 1	 left	 LineStimuli//2.8/stimNo102r3c2v2.8.jpg	 l	 1.661	 GoodTrial	 2.8	 bl
34	 1	 1	 left	 LineStimuli//2.8/stimNo88r15c3v2.8.jpg	 l	 1.636	 GoodTrial	 2.8	 bl
35	 1	 0	 x	 LineStimuli//2.8/stimNo130r0c0v2.8.jpg	 r	 1.818	 GoodTrial	 2.8	 bl
36	 1	 0	 x	 LineStimuli//2.8/stimNo123r0c0v2.8.jpg	 r	 2.060	 GoodTrial	 2.8	 bl
37	 1	 0	 x	 LineStimuli//2.8/stimNo139r0c0v2.8.jpg	 r	 2.120	 GoodTrial	 2.8	 bl
38	 1	 0	 x	 LineStimuli//2.8/stimNo158r0c0v2.8.jpg	 r	 1.906	 GoodTrial	 2.8	 bl
39	 1	 0	 x	 LineStimuli//2.8/stimNo146r0c0v2.8.jpg	 r	 1.654	 GoodTrial	 2.8	 bl
40	 1	 1	 right	 LineStimuli//2.8/stimNo111r9c15v2.8.jpg	 l	 1.593	 GoodTrial	 2.8	 bl
41	 1	 0	 x	 LineStimuli//2.8/stimNo133r0c0v2.8.jpg	 r	 1.777	 GoodTrial	 2.8	 bl
42	 1	 1	 left	 LineStimuli//2.8/stimNo96r6c9v2.8.jpg	 r	 1.492	 GoodTrial	 2.8	 bl
43	 1	 0	 x	 LineStimuli//2.8/stimNo154r0c0v2.8.jpg	 r	 1.912	 GoodTrial	 2.8	 bl
44	 1	 1	 left	 LineStimuli//2.8/stimNo98r15c2v2.8.jpg	 l	 1.608	 GoodTrial	 2.8	 bl
45	 1	 0	 x	 LineStimuli//2.8/stimNo135r0c0v2.8.jpg	 r	 2.078	 GoodTrial	 2.8	 bl
46	 1	 0	 x	 LineStimuli//2.8/stimNo149r0c0v2.8.jpg	 r	 1.641	 GoodTrial	 2.8	 bl
47	 1	 0	 x	 LineStimuli//2.8/stimNo137r0c0v2.8.jpg	 r	 2.301	 GoodTrial	 2.8	 bl
48	 1	 0	 x	 LineStimuli//2.8/stimNo157r0c0v2.8.jpg	 r	 1.957	 GoodTrial	 2.8	 bl
49	 1	 0	 x	 LineStimuli//2.8/stimNo155r0c0v2.8.jpg	 r	 2.124	 GoodTrial	 2.8	 bl
50	 1	 1	 right	 LineStimuli//2.8/stimNo117r11c17v2.8.jpg	 l	 1.762	 GoodTrial	 2.8	 bl
1	 2	 0	 x	 LineStimuli//1.8/stimNo138r0c0v1.8.jpg	 r	 4.102	 GoodTrial	 1.8	 bl
2	 2	 0	 x	 LineStimuli//1.8/stimNo144r0c0v1.8.jpg	 r	 5.764	 GoodTrial	 1.8	 bl
3	 2	 0	 x	 LineStimuli//1.8/stimNo158r0c0v1.8.jpg	 r	 9.086	 GoodTrial	 1.8	 bl
4	 2	 0	 x	 LineStimuli//1.8/stimNo124r0c0v1.8.jpg	 r	 9.237	 GoodTrial	 1.8	 bl
5	 2	 0	 x	 LineStimuli//1.8/stimNo137r0c0v1.8.jpg	 r	 11.232	 GoodTrial	 1.8	 bl
6	 2	 1	 right	 LineStimuli//1.8/stimNo102r14c17v1.8.jpg	 r	 7.667	 GoodTrial	 1.8	 bl
7	 2	 1	 right	 LineStimuli//1.8/stimNo82r7c18v1.8.jpg	 l	 1.727	 GoodTrial	 1.8	 bl
8	 2	 0	 x	 LineStimuli//1.8/stimNo134r0c0v1.8.jpg	 r	 9.889	 GoodTrial	 1.8	 bl
9	 2	 1	 left	 LineStimuli//1.8/stimNo98r15c5v1.8.jpg	 l	 1.991	 GoodTrial	 1.8	 bl
10	 2	 0	 x	 LineStimuli//1.8/stimNo151r0c0v1.8.jpg	 r	 2.692	 GoodTrial	 1.8	 bl
11	 2	 0	 x	 LineStimuli//1.8/stimNo150r0c0v1.8.jpg	 r	 2.931	 GoodTrial	 1.8	 bl
12	 2	 1	 left	 LineStimuli//1.8/stimNo86r14c4v1.8.jpg	 l	 1.656	 GoodTrial	 1.8	 bl
13	 2	 0	 x	 LineStimuli//1.8/stimNo135r0c0v1.8.jpg	 r	 3.288	 GoodTrial	 1.8	 bl
14	 2	 0	 x	 LineStimuli//1.8/stimNo139r0c0v1.8.jpg	 r	 3.391	 GoodTrial	 1.8	 bl
15	 2	 0	 x	 LineStimuli//1.8/stimNo160r0c0v1.8.jpg	 r	 2.183	 GoodTrial	 1.8	 bl
16	 2	 0	 x	 LineStimuli//1.8/stimNo125r0c0v1.8.jpg	 r	 2.647	 GoodTrial	 1.8	 bl
17	 2	 0	 x	 LineStimuli//1.8/stimNo133r0c0v1.8.jpg	 r	 3.611	 GoodTrial	 1.8	 bl
18	 2	 1	 left	 LineStimuli//1.8/stimNo107r5c4v1.8.jpg	 l	 2.998	 GoodTrial	 1.8	 bl
19	 2	 0	 x	 LineStimuli//1.8/stimNo147r0c0v1.8.jpg	 r	 3.528	 GoodTrial	 1.8	 bl
20	 2	 1	 right	 LineStimuli//1.8/stimNo93r3c17v1.8.jpg	 l	 2.170	 GoodTrial	 1.8	 bl
21	 2	 1	 left	 LineStimuli//1.8/stimNo116r4c7v1.8.jpg	 l	 1.828	 GoodTrial	 1.8	 bl
22	 2	 1	 left	 LineStimuli//1.8/stimNo110r4c7v1.8.jpg	 l	 2.854	 GoodTrial	 1.8	 bl
23	 2	 1	 left	 LineStimuli//1.8/stimNo89r11c6v1.8.jpg	 l	 1.840	 GoodTrial	 1.8	 bl
24	 2	 1	 right	 LineStimuli//1.8/stimNo114r8c13v1.8.jpg	 l	 1.643	 GoodTrial	 1.8	 bl
25	 2	 0	 x	 LineStimuli//1.8/stimNo154r0c0v1.8.jpg	 r	 3.848	 GoodTrial	 1.8	 bl
26	 2	 0	 x	 LineStimuli//1.8/stimNo122r0c0v1.8.jpg	 r	 2.229	 GoodTrial	 1.8	 bl
27	 2	 1	 left	 LineStimuli//1.8/stimNo105r6c5v1.8.jpg	 l	 1.587	 GoodTrial	 1.8	 bl
28	 2	 0	 x	 LineStimuli//1.8/stimNo136r0c0v1.8.jpg	 r	 2.062	 GoodTrial	 1.8	 bl
29	 2	 1	 right	 LineStimuli//1.8/stimNo111r4c21v1.8.jpg	 l	 1.625	 GoodTrial	 1.8	 bl
30	 2	 0	 x	 LineStimuli//1.8/stimNo148r0c0v1.8.jpg	 r	 1.816	 GoodTrial	 1.8	 bl
31	 2	 1	 right	 LineStimuli//1.8/stimNo112r6c15v1.8.jpg	 l	 1.681	 GoodTrial	 1.8	 bl
32	 2	 0	 x	 LineStimuli//1.8/stimNo128r0c0v1.8.jpg	 r	 2.950	 GoodTrial	 1.8	 bl
33	 2	 1	 right	 LineStimuli//1.8/stimNo100r9c13v1.8.jpg	 l	 2.299	 GoodTrial	 1.8	 bl
34	 2	 1	 left	 LineStimuli//1.8/stimNo87r14c2v1.8.jpg	 l	 3.383	 GoodTrial	 1.8	 bl
35	 2	 0	 x	 LineStimuli//1.8/stimNo156r0c0v1.8.jpg	 r	 2.456	 GoodTrial	 1.8	 bl
36	 2	 1	 right	 LineStimuli//1.8/stimNo84r11c21v1.8.jpg	 l	 1.860	 GoodTrial	 1.8	 bl
37	 2	 1	 left	 LineStimuli//1.8/stimNo103r15c10v1.8.jpg	 r	 3.139	 GoodTrial	 1.8	 bl
38	 2	 0	 x	 LineStimuli//1.8/stimNo145r0c0v1.8.jpg	 r	 4.285	 GoodTrial	 1.8	 bl
39	 2	 1	 left	 LineStimuli//1.8/stimNo95r4c9v1.8.jpg	 l	 2.048	 GoodTrial	 1.8	 bl
40	 2	 0	 x	 LineStimuli//1.8/stimNo152r0c0v1.8.jpg	 r	 3.743	 GoodTrial	 1.8	 bl
41	 2	 0	 x	 LineStimuli//1.8/stimNo143r0c0v1.8.jpg	 r	 2.239	 GoodTrial	 1.8	 bl
42	 2	 0	 x	 LineStimuli//1.8/stimNo141r0c0v1.8.jpg	 r	 3.173	 GoodTrial	 1.8	 bl
43	 2	 0	 x	 LineStimuli//1.8/stimNo126r0c0v1.8.jpg	 r	 5.287	 GoodTrial	 1.8	 bl
44	 2	 1	 right	 LineStimuli//1.8/stimNo119r3c21v1.8.jpg	 l	 1.920	 GoodTrial	 1.8	 bl
45	 2	 1	 left	 LineStimuli//1.8/stimNo120r14c9v1.8.jpg	 l	 3.466	 GoodTrial	 1.8	 bl
46	 2	 1	 left	 LineStimuli//1.8/stimNo106r13c9v1.8.jpg	 l	 2.832	 GoodTrial	 1.8	 bl
47	 2	 1	 left	 LineStimuli//1.8/stimNo91r14c4v1.8.jpg	 l	 1.719	 GoodTrial	 1.8	 bl
48	 2	 0	 x	 LineStimuli//1.8/stimNo153r0c0v1.8.jpg	 r	 4.206	 GoodTrial	 1.8	 bl
49	 2	 0	 x	 LineStimuli//1.8/stimNo127r0c0v1.8.jpg	 r	 4.114	 GoodTrial	 1.8	 bl
50	 2	 1	 right	 LineStimuli//1.8/stimNo92r10c18v1.8.jpg	 l	 1.604	 GoodTrial	 1.8	 bl
1	 3	 1	 right	 LineStimuli//2.3/stimNo87r13c19v2.3.jpg	 l	 1.613	 GoodTrial	 2.3	 bl
2	 3	 1	 left	 LineStimuli//2.3/stimNo83r14c4v2.3.jpg	 l	 1.650	 GoodTrial	 2.3	 bl
3	 3	 0	 x	 LineStimuli//2.3/stimNo134r0c0v2.3.jpg	 r	 3.170	 GoodTrial	 2.3	 bl
4	 3	 1	 left	 LineStimuli//2.3/stimNo82r12c4v2.3.jpg	 l	 1.531	 GoodTrial	 2.3	 bl
5	 3	 0	 x	 LineStimuli//2.3/stimNo141r0c0v2.3.jpg	 r	 1.915	 GoodTrial	 2.3	 bl
6	 3	 1	 right	 LineStimuli//2.3/stimNo85r4c15v2.3.jpg	 l	 1.638	 GoodTrial	 2.3	 bl
7	 3	 0	 x	 LineStimuli//2.3/stimNo152r0c0v2.3.jpg	 r	 2.189	 GoodTrial	 2.3	 bl
8	 3	 0	 x	 LineStimuli//2.3/stimNo124r0c0v2.3.jpg	 r	 2.064	 GoodTrial	 2.3	 bl
9	 3	 0	 x	 LineStimuli//2.3/stimNo157r0c0v2.3.jpg	 r	 2.826	 GoodTrial	 2.3	 bl
10	 3	 1	 right	 LineStimuli//2.3/stimNo107r11c15v2.3.jpg	 l	 1.673	 GoodTrial	 2.3	 bl
11	 3	 1	 right	 LineStimuli//2.3/stimNo103r11c21v2.3.jpg	 l	 1.883	 GoodTrial	 2.3	 bl
12	 3	 0	 x	 LineStimuli//2.3/stimNo122r0c0v2.3.jpg	 r	 2.534	 GoodTrial	 2.3	 bl
13	 3	 0	 x	 LineStimuli//2.3/stimNo138r0c0v2.3.jpg	 r	 5.885	 GoodTrial	 2.3	 bl
14	 3	 0	 x	 LineStimuli//2.3/stimNo156r0c0v2.3.jpg	 r	 4.208	 GoodTrial	 2.3	 bl
15	 3	 0	 x	 LineStimuli//2.3/stimNo135r0c0v2.3.jpg	 r	 2.350	 GoodTrial	 2.3	 bl
16	 3	 1	 left	 LineStimuli//2.3/stimNo88r15c2v2.3.jpg	 l	 1.782	 GoodTrial	 2.3	 bl
17	 3	 0	 x	 LineStimuli//2.3/stimNo136r0c0v2.3.jpg	 r	 1.959	 GoodTrial	 2.3	 bl
18	 3	 1	 right	 LineStimuli//2.3/stimNo105r14c14v2.3.jpg	 l	 1.792	 GoodTrial	 2.3	 bl
19	 3	 1	 left	 LineStimuli//2.3/stimNo115r7c3v2.3.jpg	 l	 3.008	 GoodTrial	 2.3	 bl
20	 3	 0	 x	 LineStimuli//2.3/stimNo154r0c0v2.3.jpg	 r	 2.624	 GoodTrial	 2.3	 bl
21	 3	 0	 x	 LineStimuli//2.3/stimNo127r0c0v2.3.jpg	 r	 2.661	 GoodTrial	 2.3	 bl
22	 3	 0	 x	 LineStimuli//2.3/stimNo142r0c0v2.3.jpg	 r	 3.015	 GoodTrial	 2.3	 bl
23	 3	 0	 x	 LineStimuli//2.3/stimNo151r0c0v2.3.jpg	 r	 3.885	 GoodTrial	 2.3	 bl
24	 3	 0	 x	 LineStimuli//2.3/stimNo137r0c0v2.3.jpg	 r	 2.929	 GoodTrial	 2.3	 bl
25	 3	 0	 x	 LineStimuli//2.3/stimNo131r0c0v2.3.jpg	 r	 3.572	 GoodTrial	 2.3	 bl
26	 3	 0	 x	 LineStimuli//2.3/stimNo148r0c0v2.3.jpg	 r	 2.843	 GoodTrial	 2.3	 bl
27	 3	 1	 left	 LineStimuli//2.3/stimNo119r3c2v2.3.jpg	 l	 2.308	 GoodTrial	 2.3	 bl
28	 3	 1	 left	 LineStimuli//2.3/stimNo117r11c8v2.3.jpg	 l	 1.787	 GoodTrial	 2.3	 bl
29	 3	 1	 left	 LineStimuli//2.3/stimNo81r4c3v2.3.jpg	 l	 1.606	 GoodTrial	 2.3	 bl
30	 3	 0	 x	 LineStimuli//2.3/stimNo153r0c0v2.3.jpg	 r	 3.353	 GoodTrial	 2.3	 bl
31	 3	 1	 left	 LineStimuli//2.3/stimNo94r8c9v2.3.jpg	 l	 1.880	 GoodTrial	 2.3	 bl
32	 3	 0	 x	 LineStimuli//2.3/stimNo132r0c0v2.3.jpg	 r	 8.285	 GoodTrial	 2.3	 bl
33	 3	 0	 x	 LineStimuli//2.3/stimNo158r0c0v2.3.jpg	 r	 1.923	 GoodTrial	 2.3	 bl
34	 3	 0	 x	 LineStimuli//2.3/stimNo149r0c0v2.3.jpg	 r	 2.335	 GoodTrial	 2.3	 bl
35	 3	 1	 left	 LineStimuli//2.3/stimNo106r9c9v2.3.jpg	 l	 1.691	 GoodTrial	 2.3	 bl
36	 3	 0	 x	 LineStimuli//2.3/stimNo139r0c0v2.3.jpg	 r	 2.874	 GoodTrial	 2.3	 bl
37	 3	 1	 right	 LineStimuli//2.3/stimNo110r15c19v2.3.jpg	 l	 2.808	 GoodTrial	 2.3	 bl
38	 3	 0	 x	 LineStimuli//2.3/stimNo150r0c0v2.3.jpg	 r	 3.125	 GoodTrial	 2.3	 bl
39	 3	 0	 x	 LineStimuli//2.3/stimNo159r0c0v2.3.jpg	 r	 3.154	 GoodTrial	 2.3	 bl
40	 3	 1	 left	 LineStimuli//2.3/stimNo96r3c3v2.3.jpg	 l	 1.619	 GoodTrial	 2.3	 bl
41	 3	 0	 x	 LineStimuli//2.3/stimNo121r0c0v2.3.jpg	 r	 1.868	 GoodTrial	 2.3	 bl
42	 3	 1	 left	 LineStimuli//2.3/stimNo114r7c8v2.3.jpg	 l	 2.892	 GoodTrial	 2.3	 bl
43	 3	 1	 right	 LineStimuli//2.3/stimNo91r11c20v2.3.jpg	 l	 1.608	 GoodTrial	 2.3	 bl
44	 3	 1	 right	 LineStimuli//2.3/stimNo120r4c17v2.3.jpg	 l	 1.699	 GoodTrial	 2.3	 bl
45	 3	 1	 right	 LineStimuli//2.3/stimNo93r4c16v2.3.jpg	 l	 1.538	 GoodTrial	 2.3	 bl
46	 3	 1	 right	 LineStimuli//2.3/stimNo111r11c21v2.3.jpg	 l	 1.706	 GoodTrial	 2.3	 bl
47	 3	 1	 left	 LineStimuli//2.3/stimNo97r3c3v2.3.jpg	 l	 1.591	 GoodTrial	 2.3	 bl
48	 3	 0	 x	 LineStimuli//2.3/stimNo129r0c0v2.3.jpg	 r	 2.403	 GoodTrial	 2.3	 bl
49	 3	 1	 right	 LineStimuli//2.3/stimNo102r6c18v2.3.jpg	 l	 1.617	 GoodTrial	 2.3	 bl
50	 3	 0	 x	 LineStimuli//2.3/stimNo146r0c0v2.3.jpg	 r	 2.896	 GoodTrial	 2.3	 bl
1	 4	 0	 x	 LineStimuli//1.5/stimNo141r0c0v1.5.jpg	 r	 3.856	 GoodTrial	 1.5	 bl
2	 4	 0	 x	 LineStimuli//1.5/stimNo130r0c0v1.5.jpg	 r	 4.001	 GoodTrial	 1.5	 bl
3	 4	 1	 right	 LineStimuli//1.5/stimNo108r13c15v1.5.jpg	 r	 4.944	 GoodTrial	 1.5	 bl
4	 4	 1	 left	 LineStimuli//1.5/stimNo89r8c9v1.5.jpg	 r	 11.489	 GoodTrial	 1.5	 bl
5	 4	 1	 right	 LineStimuli//1.5/stimNo107r2c19v1.5.jpg	 r	 5.401	 GoodTrial	 1.5	 bl
6	 4	 1	 right	 LineStimuli//1.5/stimNo105r3c18v1.5.jpg	 l	 2.043	 GoodTrial	 1.5	 bl
7	 4	 0	 x	 LineStimuli//1.5/stimNo136r0c0v1.5.jpg	 l	 2.594	 GoodTrial	 1.5	 bl
8	 4	 0	 x	 LineStimuli//1.5/stimNo153r0c0v1.5.jpg	 r	 4.697	 GoodTrial	 1.5	 bl
9	 4	 1	 left	 LineStimuli//1.5/stimNo88r6c7v1.5.jpg	 r	 3.324	 GoodTrial	 1.5	 bl
10	 4	 1	 right	 LineStimuli//1.5/stimNo115r14c18v1.5.jpg	 l	 3.004	 GoodTrial	 1.5	 bl
11	 4	 0	 x	 LineStimuli//1.5/stimNo140r0c0v1.5.jpg	 r	 6.867	 GoodTrial	 1.5	 bl
12	 4	 0	 x	 LineStimuli//1.5/stimNo152r0c0v1.5.jpg	 r	 4.279	 GoodTrial	 1.5	 bl
13	 4	 1	 left	 LineStimuli//1.5/stimNo116r7c7v1.5.jpg	 r	 5.141	 GoodTrial	 1.5	 bl
14	 4	 1	 left	 LineStimuli//1.5/stimNo96r15c4v1.5.jpg	 r	 7.716	 GoodTrial	 1.5	 bl
15	 4	 1	 left	 LineStimuli//1.5/stimNo99r10c3v1.5.jpg	 l	 2.726	 GoodTrial	 1.5	 bl
16	 4	 0	 x	 LineStimuli//1.5/stimNo156r0c0v1.5.jpg	 l	 1.930	 GoodTrial	 1.5	 bl
17	 4	 1	 left	 LineStimuli//1.5/stimNo83r12c7v1.5.jpg	 r	 7.144	 GoodTrial	 1.5	 bl
18	 4	 0	 x	 LineStimuli//1.5/stimNo154r0c0v1.5.jpg	 r	 23.771	 GoodTrial	 1.5	 bl
19	 4	 1	 left	 LineStimuli//1.5/stimNo94r10c6v1.5.jpg	 r	 17.892	 GoodTrial	 1.5	 bl
20	 4	 1	 right	 LineStimuli//1.5/stimNo101r5c20v1.5.jpg	 r	 22.884	 GoodTrial	 1.5	 bl
21	 4	 0	 x	 LineStimuli//1.5/stimNo146r0c0v1.5.jpg	 r	 16.218	 GoodTrial	 1.5	 bl
22	 4	 1	 right	 LineStimuli//1.5/stimNo111r7c17v1.5.jpg	 r	 2.928	 GoodTrial	 1.5	 bl
23	 4	 1	 right	 LineStimuli//1.5/stimNo119r6c19v1.5.jpg	 l	 1.844	 GoodTrial	 1.5	 bl
24	 4	 0	 x	 LineStimuli//1.5/stimNo143r0c0v1.5.jpg	 r	 5.095	 GoodTrial	 1.5	 bl
25	 4	 1	 right	 LineStimuli//1.5/stimNo90r3c15v1.5.jpg	 l	 2.214	 GoodTrial	 1.5	 bl
26	 4	 0	 x	 LineStimuli//1.5/stimNo138r0c0v1.5.jpg	 r	 6.822	 GoodTrial	 1.5	 bl
27	 4	 1	 right	 LineStimuli//1.5/stimNo92r6c18v1.5.jpg	 r	 6.289	 GoodTrial	 1.5	 bl
28	 4	 0	 x	 LineStimuli//1.5/stimNo160r0c0v1.5.jpg	 r	 4.980	 GoodTrial	 1.5	 bl
29	 4	 1	 right	 LineStimuli//1.5/stimNo118r9c20v1.5.jpg	 r	 5.871	 GoodTrial	 1.5	 bl
30	 4	 0	 x	 LineStimuli//1.5/stimNo147r0c0v1.5.jpg	 r	 13.567	 GoodTrial	 1.5	 bl
31	 4	 1	 left	 LineStimuli//1.5/stimNo87r12c5v1.5.jpg	 r	 17.148	 GoodTrial	 1.5	 bl
32	 4	 0	 x	 LineStimuli//1.5/stimNo137r0c0v1.5.jpg	 l	 2.037	 GoodTrial	 1.5	 bl
33	 4	 1	 right	 LineStimuli//1.5/stimNo103r13c17v1.5.jpg	 r	 6.198	 GoodTrial	 1.5	 bl
34	 4	 1	 right	 LineStimuli//1.5/stimNo98r8c21v1.5.jpg	 r	 1.537	 GoodTrial	 1.5	 bl
35	 4	 0	 x	 LineStimuli//1.5/stimNo132r0c0v1.5.jpg	 x	 4.625	 GoodTrial	 1.5	 bl
36	 4	 0	 x	 LineStimuli//1.5/stimNo133r0c0v1.5.jpg	 r	 5.687	 GoodTrial	 1.5	 bl
37	 4	 0	 x	 LineStimuli//1.5/stimNo121r0c0v1.5.jpg	 r	 5.328	 GoodTrial	 1.5	 bl
38	 4	 1	 left	 LineStimuli//1.5/stimNo97r15c6v1.5.jpg	 l	 2.273	 GoodTrial	 1.5	 bl
39	 4	 0	 x	 LineStimuli//1.5/stimNo150r0c0v1.5.jpg	 r	 3.058	 GoodTrial	 1.5	 bl
40	 4	 0	 x	 LineStimuli//1.5/stimNo127r0c0v1.5.jpg	 r	 2.525	 GoodTrial	 1.5	 bl
41	 4	 0	 x	 LineStimuli//1.5/stimNo135r0c0v1.5.jpg	 r	 2.415	 GoodTrial	 1.5	 bl
42	 4	 0	 x	 LineStimuli//1.5/stimNo122r0c0v1.5.jpg	 r	 4.129	 GoodTrial	 1.5	 bl
43	 4	 0	 x	 LineStimuli//1.5/stimNo123r0c0v1.5.jpg	 r	 4.224	 GoodTrial	 1.5	 bl
44	 4	 0	 x	 LineStimuli//1.5/stimNo124r0c0v1.5.jpg	 r	 4.878	 GoodTrial	 1.5	 bl
45	 4	 0	 x	 LineStimuli//1.5/stimNo157r0c0v1.5.jpg	 l	 2.910	 GoodTrial	 1.5	 bl
46	 4	 1	 left	 LineStimuli//1.5/stimNo113r4c4v1.5.jpg	 r	 2.756	 GoodTrial	 1.5	 bl
47	 4	 0	 x	 LineStimuli//1.5/stimNo149r0c0v1.5.jpg	 l	 2.690	 GoodTrial	 1.5	 bl
48	 4	 0	 x	 LineStimuli//1.5/stimNo142r0c0v1.5.jpg	 r	 7.241	 GoodTrial	 1.5	 bl
49	 4	 1	 left	 LineStimuli//1.5/stimNo109r8c6v1.5.jpg	 r	 7.834	 GoodTrial	 1.5	 bl
50	 4	 0	 x	 LineStimuli//1.5/stimNo159r0c0v1.5.jpg	 x	 5.432	 GoodTrial	 1.5	 bl
1	 5	 0	 x	 LineStimuli//4.3/stimNo131r0c0v4.3.jpg	 r	 3.171	 GoodTrial	 4.3	 bl
2	 5	 1	 right	 LineStimuli//4.3/stimNo99r14c18v4.3.jpg	 l	 1.610	 GoodTrial	 4.3	 bl
3	 5	 0	 x	 LineStimuli//4.3/stimNo136r0c0v4.3.jpg	 r	 1.870	 GoodTrial	 4.3	 bl
4	 5	 0	 x	 LineStimuli//4.3/stimNo154r0c0v4.3.jpg	 r	 1.832	 GoodTrial	 4.3	 bl
5	 5	 1	 left	 LineStimuli//4.3/stimNo107r2c8v4.3.jpg	 l	 1.572	 GoodTrial	 4.3	 bl
6	 5	 0	 x	 LineStimuli//4.3/stimNo133r0c0v4.3.jpg	 r	 1.906	 GoodTrial	 4.3	 bl
7	 5	 0	 x	 LineStimuli//4.3/stimNo140r0c0v4.3.jpg	 r	 1.790	 GoodTrial	 4.3	 bl
8	 5	 0	 x	 LineStimuli//4.3/stimNo153r0c0v4.3.jpg	 r	 1.616	 GoodTrial	 4.3	 bl
9	 5	 0	 x	 LineStimuli//4.3/stimNo126r0c0v4.3.jpg	 r	 1.998	 GoodTrial	 4.3	 bl
10	 5	 1	 right	 LineStimuli//4.3/stimNo112r10c16v4.3.jpg	 l	 1.560	 GoodTrial	 4.3	 bl
11	 5	 1	 left	 LineStimuli//4.3/stimNo88r10c3v4.3.jpg	 l	 1.645	 GoodTrial	 4.3	 bl
12	 5	 1	 left	 LineStimuli//4.3/stimNo93r9c9v4.3.jpg	 l	 1.586	 GoodTrial	 4.3	 bl
13	 5	 1	 left	 LineStimuli//4.3/stimNo108r5c8v4.3.jpg	 l	 1.621	 GoodTrial	 4.3	 bl
14	 5	 0	 x	 LineStimuli//4.3/stimNo157r0c0v4.3.jpg	 r	 1.952	 GoodTrial	 4.3	 bl
15	 5	 0	 x	 LineStimuli//4.3/stimNo123r0c0v4.3.jpg	 r	 1.891	 GoodTrial	 4.3	 bl
16	 5	 1	 left	 LineStimuli//4.3/stimNo90r10c4v4.3.jpg	 l	 1.589	 GoodTrial	 4.3	 bl
17	 5	 0	 x	 LineStimuli//4.3/stimNo159r0c0v4.3.jpg	 r	 1.653	 GoodTrial	 4.3	 bl
18	 5	 0	 x	 LineStimuli//4.3/stimNo141r0c0v4.3.jpg	 r	 1.694	 GoodTrial	 4.3	 bl
19	 5	 0	 x	 LineStimuli//4.3/stimNo147r0c0v4.3.jpg	 r	 1.568	 GoodTrial	 4.3	 bl
20	 5	 0	 x	 LineStimuli//4.3/stimNo149r0c0v4.3.jpg	 r	 1.552	 GoodTrial	 4.3	 bl
21	 5	 1	 right	 LineStimuli//4.3/stimNo91r9c13v4.3.jpg	 l	 1.649	 GoodTrial	 4.3	 bl
22	 5	 1	 left	 LineStimuli//4.3/stimNo86r7c3v4.3.jpg	 l	 1.566	 GoodTrial	 4.3	 bl
23	 5	 1	 left	 LineStimuli//4.3/stimNo98r3c8v4.3.jpg	 l	 1.606	 GoodTrial	 4.3	 bl
24	 5	 1	 right	 LineStimuli//4.3/stimNo94r12c13v4.3.jpg	 l	 1.485	 GoodTrial	 4.3	 bl
25	 5	 1	 left	 LineStimuli//4.3/stimNo106r8c2v4.3.jpg	 l	 1.430	 GoodTrial	 4.3	 bl
26	 5	 0	 x	 LineStimuli//4.3/stimNo122r0c0v4.3.jpg	 r	 1.652	 GoodTrial	 4.3	 bl
27	 5	 1	 right	 LineStimuli//4.3/stimNo116r5c13v4.3.jpg	 l	 1.533	 GoodTrial	 4.3	 bl
28	 5	 0	 x	 LineStimuli//4.3/stimNo121r0c0v4.3.jpg	 r	 2.056	 GoodTrial	 4.3	 bl
29	 5	 1	 right	 LineStimuli//4.3/stimNo114r10c15v4.3.jpg	 l	 1.583	 GoodTrial	 4.3	 bl
30	 5	 1	 left	 LineStimuli//4.3/stimNo111r10c9v4.3.jpg	 l	 1.480	 GoodTrial	 4.3	 bl
31	 5	 1	 right	 LineStimuli//4.3/stimNo89r3c17v4.3.jpg	 l	 1.491	 GoodTrial	 4.3	 bl
32	 5	 1	 right	 LineStimuli//4.3/stimNo118r11c13v4.3.jpg	 l	 1.485	 GoodTrial	 4.3	 bl
33	 5	 1	 left	 LineStimuli//4.3/stimNo85r3c5v4.3.jpg	 l	 1.572	 GoodTrial	 4.3	 bl
34	 5	 0	 x	 LineStimuli//4.3/stimNo160r0c0v4.3.jpg	 r	 1.734	 GoodTrial	 4.3	 bl
35	 5	 1	 right	 LineStimuli//4.3/stimNo117r10c21v4.3.jpg	 l	 1.578	 GoodTrial	 4.3	 bl
36	 5	 0	 x	 LineStimuli//4.3/stimNo134r0c0v4.3.jpg	 r	 1.633	 GoodTrial	 4.3	 bl
37	 5	 0	 x	 LineStimuli//4.3/stimNo156r0c0v4.3.jpg	 r	 1.641	 GoodTrial	 4.3	 bl
38	 5	 1	 left	 LineStimuli//4.3/stimNo95r11c9v4.3.jpg	 l	 1.483	 GoodTrial	 4.3	 bl
39	 5	 0	 x	 LineStimuli//4.3/stimNo129r0c0v4.3.jpg	 r	 1.551	 GoodTrial	 4.3	 bl
40	 5	 1	 left	 LineStimuli//4.3/stimNo83r4c2v4.3.jpg	 l	 1.506	 GoodTrial	 4.3	 bl
41	 5	 0	 x	 LineStimuli//4.3/stimNo135r0c0v4.3.jpg	 r	 1.509	 GoodTrial	 4.3	 bl
42	 5	 1	 right	 LineStimuli//4.3/stimNo109r15c15v4.3.jpg	 l	 1.618	 GoodTrial	 4.3	 bl
43	 5	 0	 x	 LineStimuli//4.3/stimNo130r0c0v4.3.jpg	 r	 1.676	 GoodTrial	 4.3	 bl
44	 5	 1	 left	 LineStimuli//4.3/stimNo104r15c2v4.3.jpg	 l	 1.730	 GoodTrial	 4.3	 bl
45	 5	 1	 right	 LineStimuli//4.3/stimNo97r6c21v4.3.jpg	 l	 1.571	 GoodTrial	 4.3	 bl
46	 5	 1	 left	 LineStimuli//4.3/stimNo110r6c7v4.3.jpg	 l	 1.444	 GoodTrial	 4.3	 bl
47	 5	 0	 x	 LineStimuli//4.3/stimNo132r0c0v4.3.jpg	 r	 1.653	 GoodTrial	 4.3	 bl
48	 5	 0	 x	 LineStimuli//4.3/stimNo148r0c0v4.3.jpg	 r	 1.811	 GoodTrial	 4.3	 bl
49	 5	 0	 x	 LineStimuli//4.3/stimNo152r0c0v4.3.jpg	 r	 1.773	 GoodTrial	 4.3	 bl
50	 5	 0	 x	 LineStimuli//4.3/stimNo150r0c0v4.3.jpg	 r	 1.688	 GoodTrial	 4.3	 bl
1	 6	 0	 x	 LineStimuli//3.3/stimNo128r0c0v3.3.jpg	 r	 2.422	 GoodTrial	 3.3	 bl
2	 6	 1	 left	 LineStimuli//3.3/stimNo106r9c9v3.3.jpg	 l	 1.622	 GoodTrial	 3.3	 bl
3	 6	 1	 left	 LineStimuli//3.3/stimNo111r15c7v3.3.jpg	 l	 1.640	 GoodTrial	 3.3	 bl
4	 6	 1	 left	 LineStimuli//3.3/stimNo119r15c7v3.3.jpg	 l	 1.503	 GoodTrial	 3.3	 bl
5	 6	 1	 right	 LineStimuli//3.3/stimNo87r15c13v3.3.jpg	 l	 1.624	 GoodTrial	 3.3	 bl
6	 6	 1	 left	 LineStimuli//3.3/stimNo85r6c4v3.3.jpg	 l	 1.537	 GoodTrial	 3.3	 bl
7	 6	 0	 x	 LineStimuli//3.3/stimNo147r0c0v3.3.jpg	 r	 1.776	 GoodTrial	 3.3	 bl
8	 6	 0	 x	 LineStimuli//3.3/stimNo159r0c0v3.3.jpg	 r	 3.294	 GoodTrial	 3.3	 bl
9	 6	 1	 left	 LineStimuli//3.3/stimNo115r3c4v3.3.jpg	 l	 1.526	 GoodTrial	 3.3	 bl
10	 6	 0	 x	 LineStimuli//3.3/stimNo142r0c0v3.3.jpg	 r	 1.728	 GoodTrial	 3.3	 bl
11	 6	 1	 right	 LineStimuli//3.3/stimNo101r7c16v3.3.jpg	 l	 1.553	 GoodTrial	 3.3	 bl
12	 6	 1	 left	 LineStimuli//3.3/stimNo103r6c6v3.3.jpg	 l	 1.508	 GoodTrial	 3.3	 bl
13	 6	 0	 x	 LineStimuli//3.3/stimNo127r0c0v3.3.jpg	 r	 1.498	 GoodTrial	 3.3	 bl
14	 6	 0	 x	 LineStimuli//3.3/stimNo140r0c0v3.3.jpg	 r	 1.460	 GoodTrial	 3.3	 bl
15	 6	 1	 right	 LineStimuli//3.3/stimNo116r10c14v3.3.jpg	 l	 1.498	 GoodTrial	 3.3	 bl
16	 6	 1	 left	 LineStimuli//3.3/stimNo92r10c7v3.3.jpg	 l	 1.657	 GoodTrial	 3.3	 bl
17	 6	 0	 x	 LineStimuli//3.3/stimNo136r0c0v3.3.jpg	 r	 5.303	 GoodTrial	 3.3	 bl
18	 6	 0	 x	 LineStimuli//3.3/stimNo123r0c0v3.3.jpg	 r	 1.480	 GoodTrial	 3.3	 bl
19	 6	 0	 x	 LineStimuli//3.3/stimNo125r0c0v3.3.jpg	 r	 1.698	 GoodTrial	 3.3	 bl
20	 6	 1	 right	 LineStimuli//3.3/stimNo98r4c21v3.3.jpg	 l	 1.636	 GoodTrial	 3.3	 bl
21	 6	 1	 left	 LineStimuli//3.3/stimNo109r15c7v3.3.jpg	 l	 1.617	 GoodTrial	 3.3	 bl
22	 6	 1	 right	 LineStimuli//3.3/stimNo120r8c14v3.3.jpg	 l	 1.591	 GoodTrial	 3.3	 bl
23	 6	 0	 x	 LineStimuli//3.3/stimNo155r0c0v3.3.jpg	 r	 1.532	 GoodTrial	 3.3	 bl
24	 6	 1	 right	 LineStimuli//3.3/stimNo99r6c17v3.3.jpg	 l	 1.472	 GoodTrial	 3.3	 bl
25	 6	 0	 x	 LineStimuli//3.3/stimNo160r0c0v3.3.jpg	 r	 1.858	 GoodTrial	 3.3	 bl
26	 6	 0	 x	 LineStimuli//3.3/stimNo150r0c0v3.3.jpg	 r	 2.198	 GoodTrial	 3.3	 bl
27	 6	 0	 x	 LineStimuli//3.3/stimNo122r0c0v3.3.jpg	 r	 1.772	 GoodTrial	 3.3	 bl
28	 6	 0	 x	 LineStimuli//3.3/stimNo149r0c0v3.3.jpg	 r	 1.688	 GoodTrial	 3.3	 bl
29	 6	 0	 x	 LineStimuli//3.3/stimNo146r0c0v3.3.jpg	 r	 1.632	 GoodTrial	 3.3	 bl
30	 6	 0	 x	 LineStimuli//3.3/stimNo143r0c0v3.3.jpg	 r	 1.454	 GoodTrial	 3.3	 bl
31	 6	 1	 left	 LineStimuli//3.3/stimNo117r2c5v3.3.jpg	 r	 1.299	 GoodTrial	 3.3	 bl
32	 6	 1	 left	 LineStimuli//3.3/stimNo95r15c8v3.3.jpg	 l	 1.732	 GoodTrial	 3.3	 bl
33	 6	 0	 x	 LineStimuli//3.3/stimNo145r0c0v3.3.jpg	 r	 1.622	 GoodTrial	 3.3	 bl
34	 6	 0	 x	 LineStimuli//3.3/stimNo130r0c0v3.3.jpg	 r	 1.732	 GoodTrial	 3.3	 bl
35	 6	 0	 x	 LineStimuli//3.3/stimNo148r0c0v3.3.jpg	 r	 1.713	 GoodTrial	 3.3	 bl
36	 6	 0	 x	 LineStimuli//3.3/stimNo134r0c0v3.3.jpg	 r	 1.329	 GoodTrial	 3.3	 bl
37	 6	 1	 left	 LineStimuli//3.3/stimNo86r5c7v3.3.jpg	 l	 1.603	 GoodTrial	 3.3	 bl
38	 6	 0	 x	 LineStimuli//3.3/stimNo154r0c0v3.3.jpg	 r	 1.580	 GoodTrial	 3.3	 bl
39	 6	 1	 right	 LineStimuli//3.3/stimNo107r2c17v3.3.jpg	 l	 1.581	 GoodTrial	 3.3	 bl
40	 6	 0	 x	 LineStimuli//3.3/stimNo124r0c0v3.3.jpg	 r	 1.631	 GoodTrial	 3.3	 bl
41	 6	 0	 x	 LineStimuli//3.3/stimNo144r0c0v3.3.jpg	 r	 1.733	 GoodTrial	 3.3	 bl
42	 6	 1	 left	 LineStimuli//3.3/stimNo93r3c5v3.3.jpg	 l	 2.459	 GoodTrial	 3.3	 bl
43	 6	 0	 x	 LineStimuli//3.3/stimNo141r0c0v3.3.jpg	 r	 1.506	 GoodTrial	 3.3	 bl
44	 6	 1	 right	 LineStimuli//3.3/stimNo97r6c13v3.3.jpg	 l	 1.517	 GoodTrial	 3.3	 bl
45	 6	 0	 x	 LineStimuli//3.3/stimNo137r0c0v3.3.jpg	 r	 1.605	 GoodTrial	 3.3	 bl
46	 6	 1	 left	 LineStimuli//3.3/stimNo100r3c3v3.3.jpg	 l	 1.557	 GoodTrial	 3.3	 bl
47	 6	 1	 right	 LineStimuli//3.3/stimNo105r7c20v3.3.jpg	 l	 1.521	 GoodTrial	 3.3	 bl
48	 6	 0	 x	 LineStimuli//3.3/stimNo126r0c0v3.3.jpg	 r	 1.512	 GoodTrial	 3.3	 bl
49	 6	 0	 x	 LineStimuli//3.3/stimNo129r0c0v3.3.jpg	 r	 1.561	 GoodTrial	 3.3	 bl
50	 6	 0	 x	 LineStimuli//3.3/stimNo138r0c0v3.3.jpg	 r	 1.509	 GoodTrial	 3.3	 bl
1	 7	 0	 x	 LineStimuli//3.8/stimNo136r0c0v3.8.jpg	 r	 1.802	 GoodTrial	 3.8	 bl
2	 7	 0	 x	 LineStimuli//3.8/stimNo152r0c0v3.8.jpg	 r	 1.494	 GoodTrial	 3.8	 bl
3	 7	 1	 right	 LineStimuli//3.8/stimNo99r2c13v3.8.jpg	 l	 1.582	 GoodTrial	 3.8	 bl
4	 7	 0	 x	 LineStimuli//3.8/stimNo144r0c0v3.8.jpg	 r	 1.723	 GoodTrial	 3.8	 bl
5	 7	 1	 left	 LineStimuli//3.8/stimNo115r14c10v3.8.jpg	 l	 1.747	 GoodTrial	 3.8	 bl
6	 7	 1	 right	 LineStimuli//3.8/stimNo117r6c17v3.8.jpg	 l	 1.511	 GoodTrial	 3.8	 bl
7	 7	 0	 x	 LineStimuli//3.8/stimNo140r0c0v3.8.jpg	 r	 1.525	 GoodTrial	 3.8	 bl
8	 7	 1	 right	 LineStimuli//3.8/stimNo114r10c14v3.8.jpg	 l	 1.994	 GoodTrial	 3.8	 bl
9	 7	 1	 right	 LineStimuli//3.8/stimNo82r9c21v3.8.jpg	 r	 1.524	 GoodTrial	 3.8	 bl
10	 7	 0	 x	 LineStimuli//3.8/stimNo132r0c0v3.8.jpg	 r	 1.571	 GoodTrial	 3.8	 bl
11	 7	 0	 x	 LineStimuli//3.8/stimNo149r0c0v3.8.jpg	 r	 1.531	 GoodTrial	 3.8	 bl
12	 7	 0	 x	 LineStimuli//3.8/stimNo125r0c0v3.8.jpg	 r	 1.526	 GoodTrial	 3.8	 bl
13	 7	 1	 right	 LineStimuli//3.8/stimNo87r6c13v3.8.jpg	 l	 1.531	 GoodTrial	 3.8	 bl
14	 7	 1	 left	 LineStimuli//3.8/stimNo104r12c8v3.8.jpg	 l	 1.538	 GoodTrial	 3.8	 bl
15	 7	 1	 right	 LineStimuli//3.8/stimNo91r10c16v3.8.jpg	 l	 1.566	 GoodTrial	 3.8	 bl
16	 7	 1	 right	 LineStimuli//3.8/stimNo85r3c13v3.8.jpg	 l	 1.465	 GoodTrial	 3.8	 bl
17	 7	 0	 x	 LineStimuli//3.8/stimNo145r0c0v3.8.jpg	 r	 1.680	 GoodTrial	 3.8	 bl
18	 7	 0	 x	 LineStimuli//3.8/stimNo155r0c0v3.8.jpg	 r	 1.494	 GoodTrial	 3.8	 bl
19	 7	 0	 x	 LineStimuli//3.8/stimNo156r0c0v3.8.jpg	 r	 1.474	 GoodTrial	 3.8	 bl
20	 7	 0	 x	 LineStimuli//3.8/stimNo159r0c0v3.8.jpg	 r	 1.717	 GoodTrial	 3.8	 bl
21	 7	 0	 x	 LineStimuli//3.8/stimNo147r0c0v3.8.jpg	 r	 1.449	 GoodTrial	 3.8	 bl
22	 7	 0	 x	 LineStimuli//3.8/stimNo131r0c0v3.8.jpg	 r	 1.622	 GoodTrial	 3.8	 bl
23	 7	 1	 right	 LineStimuli//3.8/stimNo90r8c17v3.8.jpg	 l	 1.506	 GoodTrial	 3.8	 bl
24	 7	 1	 left	 LineStimuli//3.8/stimNo106r9c9v3.8.jpg	 l	 1.525	 GoodTrial	 3.8	 bl
25	 7	 0	 x	 LineStimuli//3.8/stimNo121r0c0v3.8.jpg	 r	 1.659	 GoodTrial	 3.8	 bl
26	 7	 1	 left	 LineStimuli//3.8/stimNo98r2c9v3.8.jpg	 l	 1.624	 GoodTrial	 3.8	 bl
27	 7	 0	 x	 LineStimuli//3.8/stimNo127r0c0v3.8.jpg	 r	 1.267	 GoodTrial	 3.8	 bl
28	 7	 0	 x	 LineStimuli//3.8/stimNo154r0c0v3.8.jpg	 r	 1.454	 GoodTrial	 3.8	 bl
29	 7	 0	 x	 LineStimuli//3.8/stimNo134r0c0v3.8.jpg	 r	 1.792	 GoodTrial	 3.8	 bl
30	 7	 0	 x	 LineStimuli//3.8/stimNo135r0c0v3.8.jpg	 r	 1.506	 GoodTrial	 3.8	 bl
31	 7	 1	 left	 LineStimuli//3.8/stimNo113r14c9v3.8.jpg	 l	 1.649	 GoodTrial	 3.8	 bl
32	 7	 1	 left	 LineStimuli//3.8/stimNo116r7c3v3.8.jpg	 l	 1.464	 GoodTrial	 3.8	 bl
33	 7	 1	 right	 LineStimuli//3.8/stimNo111r15c20v3.8.jpg	 l	 1.527	 GoodTrial	 3.8	 bl
34	 7	 0	 x	 LineStimuli//3.8/stimNo158r0c0v3.8.jpg	 r	 1.544	 GoodTrial	 3.8	 bl
35	 7	 1	 right	 LineStimuli//3.8/stimNo102r10c17v3.8.jpg	 l	 1.569	 GoodTrial	 3.8	 bl
36	 7	 1	 right	 LineStimuli//3.8/stimNo96r2c13v3.8.jpg	 l	 1.400	 GoodTrial	 3.8	 bl
37	 7	 0	 x	 LineStimuli//3.8/stimNo138r0c0v3.8.jpg	 r	 1.662	 GoodTrial	 3.8	 bl
38	 7	 0	 x	 LineStimuli//3.8/stimNo157r0c0v3.8.jpg	 r	 1.477	 GoodTrial	 3.8	 bl
39	 7	 0	 x	 LineStimuli//3.8/stimNo122r0c0v3.8.jpg	 r	 1.521	 GoodTrial	 3.8	 bl
40	 7	 1	 right	 LineStimuli//3.8/stimNo81r3c21v3.8.jpg	 l	 1.605	 GoodTrial	 3.8	 bl
41	 7	 0	 x	 LineStimuli//3.8/stimNo151r0c0v3.8.jpg	 r	 1.854	 GoodTrial	 3.8	 bl
42	 7	 0	 x	 LineStimuli//3.8/stimNo148r0c0v3.8.jpg	 r	 1.753	 GoodTrial	 3.8	 bl
43	 7	 0	 x	 LineStimuli//3.8/stimNo137r0c0v3.8.jpg	 r	 1.659	 GoodTrial	 3.8	 bl
44	 7	 0	 x	 LineStimuli//3.8/stimNo150r0c0v3.8.jpg	 r	 1.572	 GoodTrial	 3.8	 bl
45	 7	 1	 left	 LineStimuli//3.8/stimNo103r11c7v3.8.jpg	 l	 1.586	 GoodTrial	 3.8	 bl
46	 7	 0	 x	 LineStimuli//3.8/stimNo139r0c0v3.8.jpg	 r	 1.467	 GoodTrial	 3.8	 bl
47	 7	 1	 right	 LineStimuli//3.8/stimNo112r12c16v3.8.jpg	 l	 1.479	 GoodTrial	 3.8	 bl
48	 7	 0	 x	 LineStimuli//3.8/stimNo124r0c0v3.8.jpg	 r	 1.561	 GoodTrial	 3.8	 bl
49	 7	 1	 right	 LineStimuli//3.8/stimNo95r5c21v3.8.jpg	 l	 1.858	 GoodTrial	 3.8	 bl
50	 7	 0	 x	 LineStimuli//3.8/stimNo128r0c0v3.8.jpg	 r	 1.561	 GoodTrial	 3.8	 bl
