Trial	Block	Target_pr	Target_side	Name	Key	RT	Message	Block_Type	Condition
1	 1	 1	 left	 LineStimuli//2.8/stimNo84r3c9v2.8.jpg	 l	 3.160	 GoodTrial	 2.8	 bl
2	 1	 1	 right	 LineStimuli//2.8/stimNo117r11c17v2.8.jpg	 l	 1.874	 GoodTrial	 2.8	 bl
3	 1	 0	 x	 LineStimuli//2.8/stimNo151r0c0v2.8.jpg	 r	 4.999	 GoodTrial	 2.8	 bl
4	 1	 0	 x	 LineStimuli//2.8/stimNo142r0c0v2.8.jpg	 r	 6.032	 GoodTrial	 2.8	 bl
5	 1	 0	 x	 LineStimuli//2.8/stimNo141r0c0v2.8.jpg	 r	 7.368	 GoodTrial	 2.8	 bl
6	 1	 0	 x	 LineStimuli//2.8/stimNo139r0c0v2.8.jpg	 r	 6.753	 GoodTrial	 2.8	 bl
7	 1	 0	 x	 LineStimuli//2.8/stimNo132r0c0v2.8.jpg	 r	 6.561	 GoodTrial	 2.8	 bl
8	 1	 0	 x	 LineStimuli//2.8/stimNo138r0c0v2.8.jpg	 r	 8.844	 GoodTrial	 2.8	 bl
9	 1	 0	 x	 LineStimuli//2.8/stimNo137r0c0v2.8.jpg	 r	 8.328	 GoodTrial	 2.8	 bl
10	 1	 0	 x	 LineStimuli//2.8/stimNo148r0c0v2.8.jpg	 r	 8.312	 GoodTrial	 2.8	 bl
11	 1	 0	 x	 LineStimuli//2.8/stimNo134r0c0v2.8.jpg	 r	 6.715	 GoodTrial	 2.8	 bl
12	 1	 0	 x	 LineStimuli//2.8/stimNo131r0c0v2.8.jpg	 r	 7.064	 GoodTrial	 2.8	 bl
13	 1	 1	 right	 LineStimuli//2.8/stimNo110r7c14v2.8.jpg	 l	 1.884	 GoodTrial	 2.8	 bl
14	 1	 1	 right	 LineStimuli//2.8/stimNo103r3c19v2.8.jpg	 l	 1.715	 GoodTrial	 2.8	 bl
15	 1	 0	 x	 LineStimuli//2.8/stimNo158r0c0v2.8.jpg	 r	 5.850	 GoodTrial	 2.8	 bl
16	 1	 1	 right	 LineStimuli//2.8/stimNo109r6c18v2.8.jpg	 l	 1.616	 GoodTrial	 2.8	 bl
17	 1	 1	 right	 LineStimuli//2.8/stimNo92r14c21v2.8.jpg	 l	 1.665	 GoodTrial	 2.8	 bl
18	 1	 0	 x	 LineStimuli//2.8/stimNo144r0c0v2.8.jpg	 r	 3.634	 GoodTrial	 2.8	 bl
19	 1	 1	 right	 LineStimuli//2.8/stimNo115r9c14v2.8.jpg	 l	 1.671	 GoodTrial	 2.8	 bl
20	 1	 1	 right	 LineStimuli//2.8/stimNo95r9c18v2.8.jpg	 l	 1.601	 GoodTrial	 2.8	 bl
21	 1	 1	 left	 LineStimuli//2.8/stimNo98r15c2v2.8.jpg	 l	 1.758	 GoodTrial	 2.8	 bl
22	 1	 0	 x	 LineStimuli//2.8/stimNo122r0c0v2.8.jpg	 r	 4.667	 GoodTrial	 2.8	 bl
23	 1	 1	 right	 LineStimuli//2.8/stimNo111r9c15v2.8.jpg	 l	 1.755	 GoodTrial	 2.8	 bl
24	 1	 0	 x	 LineStimuli//2.8/stimNo125r0c0v2.8.jpg	 r	 3.147	 GoodTrial	 2.8	 bl
25	 1	 0	 x	 LineStimuli//2.8/stimNo146r0c0v2.8.jpg	 x	 1.229	 GoodTrial	 2.8	 bl
26	 1	 0	 x	 LineStimuli//2.8/stimNo129r0c0v2.8.jpg	 r	 3.351	 GoodTrial	 2.8	 bl
27	 1	 0	 x	 LineStimuli//2.8/stimNo154r0c0v2.8.jpg	 r	 2.728	 GoodTrial	 2.8	 bl
28	 1	 1	 left	 LineStimuli//2.8/stimNo96r6c9v2.8.jpg	 l	 1.627	 GoodTrial	 2.8	 bl
29	 1	 1	 left	 LineStimuli//2.8/stimNo86r15c6v2.8.jpg	 l	 1.738	 GoodTrial	 2.8	 bl
30	 1	 0	 x	 LineStimuli//2.8/stimNo157r0c0v2.8.jpg	 r	 3.462	 GoodTrial	 2.8	 bl
31	 1	 1	 right	 LineStimuli//2.8/stimNo118r5c16v2.8.jpg	 l	 1.605	 GoodTrial	 2.8	 bl
32	 1	 1	 right	 LineStimuli//2.8/stimNo114r8c19v2.8.jpg	 l	 1.569	 GoodTrial	 2.8	 bl
33	 1	 1	 right	 LineStimuli//2.8/stimNo85r4c15v2.8.jpg	 l	 1.668	 GoodTrial	 2.8	 bl
34	 1	 0	 x	 LineStimuli//2.8/stimNo152r0c0v2.8.jpg	 r	 3.751	 GoodTrial	 2.8	 bl
35	 1	 1	 left	 LineStimuli//2.8/stimNo82r4c6v2.8.jpg	 l	 1.657	 GoodTrial	 2.8	 bl
36	 1	 1	 left	 LineStimuli//2.8/stimNo105r5c4v2.8.jpg	 l	 1.526	 GoodTrial	 2.8	 bl
37	 1	 0	 x	 LineStimuli//2.8/stimNo123r0c0v2.8.jpg	 r	 2.941	 GoodTrial	 2.8	 bl
38	 1	 1	 left	 LineStimuli//2.8/stimNo94r13c7v2.8.jpg	 l	 1.924	 GoodTrial	 2.8	 bl
39	 1	 1	 left	 LineStimuli//2.8/stimNo83r12c4v2.8.jpg	 l	 1.562	 GoodTrial	 2.8	 bl
40	 1	 1	 left	 LineStimuli//2.8/stimNo107r5c6v2.8.jpg	 l	 1.525	 GoodTrial	 2.8	 bl
41	 1	 0	 x	 LineStimuli//2.8/stimNo130r0c0v2.8.jpg	 r	 3.095	 GoodTrial	 2.8	 bl
42	 1	 1	 right	 LineStimuli//2.8/stimNo93r9c20v2.8.jpg	 l	 1.640	 GoodTrial	 2.8	 bl
43	 1	 0	 x	 LineStimuli//2.8/stimNo133r0c0v2.8.jpg	 r	 3.018	 GoodTrial	 2.8	 bl
44	 1	 1	 left	 LineStimuli//2.8/stimNo113r9c5v2.8.jpg	 l	 1.680	 GoodTrial	 2.8	 bl
45	 1	 1	 right	 LineStimuli//2.8/stimNo106r13c20v2.8.jpg	 l	 1.733	 GoodTrial	 2.8	 bl
46	 1	 1	 left	 LineStimuli//2.8/stimNo89r12c4v2.8.jpg	 l	 1.699	 GoodTrial	 2.8	 bl
47	 1	 0	 x	 LineStimuli//2.8/stimNo127r0c0v2.8.jpg	 r	 3.040	 GoodTrial	 2.8	 bl
48	 1	 0	 x	 LineStimuli//2.8/stimNo155r0c0v2.8.jpg	 r	 3.263	 GoodTrial	 2.8	 bl
49	 1	 1	 right	 LineStimuli//2.8/stimNo90r13c21v2.8.jpg	 l	 1.626	 GoodTrial	 2.8	 bl
50	 1	 0	 x	 LineStimuli//2.8/stimNo145r0c0v2.8.jpg	 r	 2.901	 GoodTrial	 2.8	 bl
1	 2	 1	 right	 LineStimuli//1.5/stimNo86r6c16v1.5.jpg	 r	 6.025	 GoodTrial	 1.5	 bl
2	 2	 1	 left	 LineStimuli//1.5/stimNo114r4c4v1.5.jpg	 r	 5.026	 GoodTrial	 1.5	 bl
3	 2	 0	 x	 LineStimuli//1.5/stimNo160r0c0v1.5.jpg	 l	 3.175	 GoodTrial	 1.5	 bl
4	 2	 1	 right	 LineStimuli//1.5/stimNo101r5c20v1.5.jpg	 r	 5.590	 GoodTrial	 1.5	 bl
5	 2	 1	 right	 LineStimuli//1.5/stimNo100r6c20v1.5.jpg	 r	 5.307	 GoodTrial	 1.5	 bl
6	 2	 0	 x	 LineStimuli//1.5/stimNo152r0c0v1.5.jpg	 r	 5.036	 GoodTrial	 1.5	 bl
7	 2	 0	 x	 LineStimuli//1.5/stimNo145r0c0v1.5.jpg	 r	 5.208	 GoodTrial	 1.5	 bl
8	 2	 0	 x	 LineStimuli//1.5/stimNo143r0c0v1.5.jpg	 r	 5.720	 GoodTrial	 1.5	 bl
9	 2	 1	 left	 LineStimuli//1.5/stimNo99r10c3v1.5.jpg	 r	 5.703	 GoodTrial	 1.5	 bl
10	 2	 1	 left	 LineStimuli//1.5/stimNo96r15c4v1.5.jpg	 r	 5.780	 GoodTrial	 1.5	 bl
11	 2	 1	 right	 LineStimuli//1.5/stimNo119r6c19v1.5.jpg	 r	 6.713	 GoodTrial	 1.5	 bl
12	 2	 0	 x	 LineStimuli//1.5/stimNo133r0c0v1.5.jpg	 r	 5.464	 GoodTrial	 1.5	 bl
13	 2	 1	 right	 LineStimuli//1.5/stimNo118r9c20v1.5.jpg	 l	 2.241	 GoodTrial	 1.5	 bl
14	 2	 0	 x	 LineStimuli//1.5/stimNo124r0c0v1.5.jpg	 r	 5.981	 GoodTrial	 1.5	 bl
15	 2	 0	 x	 LineStimuli//1.5/stimNo146r0c0v1.5.jpg	 r	 5.774	 GoodTrial	 1.5	 bl
16	 2	 0	 x	 LineStimuli//1.5/stimNo149r0c0v1.5.jpg	 r	 6.417	 GoodTrial	 1.5	 bl
17	 2	 1	 left	 LineStimuli//1.5/stimNo109r8c6v1.5.jpg	 r	 6.024	 GoodTrial	 1.5	 bl
18	 2	 0	 x	 LineStimuli//1.5/stimNo130r0c0v1.5.jpg	 r	 5.033	 GoodTrial	 1.5	 bl
19	 2	 1	 left	 LineStimuli//1.5/stimNo97r15c6v1.5.jpg	 r	 6.227	 GoodTrial	 1.5	 bl
20	 2	 1	 left	 LineStimuli//1.5/stimNo87r12c5v1.5.jpg	 r	 6.285	 GoodTrial	 1.5	 bl
21	 2	 1	 right	 LineStimuli//1.5/stimNo105r3c18v1.5.jpg	 l	 6.914	 GoodTrial	 1.5	 bl
22	 2	 0	 x	 LineStimuli//1.5/stimNo148r0c0v1.5.jpg	 r	 8.524	 GoodTrial	 1.5	 bl
23	 2	 0	 x	 LineStimuli//1.5/stimNo153r0c0v1.5.jpg	 r	 6.757	 GoodTrial	 1.5	 bl
24	 2	 0	 x	 LineStimuli//1.5/stimNo156r0c0v1.5.jpg	 r	 6.377	 GoodTrial	 1.5	 bl
25	 2	 1	 left	 LineStimuli//1.5/stimNo116r7c7v1.5.jpg	 r	 7.809	 GoodTrial	 1.5	 bl
26	 2	 0	 x	 LineStimuli//1.5/stimNo127r0c0v1.5.jpg	 r	 6.423	 GoodTrial	 1.5	 bl
27	 2	 0	 x	 LineStimuli//1.5/stimNo126r0c0v1.5.jpg	 r	 8.441	 GoodTrial	 1.5	 bl
28	 2	 1	 right	 LineStimuli//1.5/stimNo115r14c18v1.5.jpg	 l	 2.281	 GoodTrial	 1.5	 bl
29	 2	 1	 right	 LineStimuli//1.5/stimNo107r2c19v1.5.jpg	 r	 7.048	 GoodTrial	 1.5	 bl
30	 2	 1	 right	 LineStimuli//1.5/stimNo95r6c14v1.5.jpg	 r	 7.702	 GoodTrial	 1.5	 bl
31	 2	 0	 x	 LineStimuli//1.5/stimNo132r0c0v1.5.jpg	 r	 6.169	 GoodTrial	 1.5	 bl
32	 2	 0	 x	 LineStimuli//1.5/stimNo123r0c0v1.5.jpg	 r	 7.366	 GoodTrial	 1.5	 bl
33	 2	 0	 x	 LineStimuli//1.5/stimNo128r0c0v1.5.jpg	 r	 7.200	 GoodTrial	 1.5	 bl
34	 2	 0	 x	 LineStimuli//1.5/stimNo150r0c0v1.5.jpg	 r	 6.675	 GoodTrial	 1.5	 bl
35	 2	 1	 right	 LineStimuli//1.5/stimNo84r3c18v1.5.jpg	 r	 6.495	 GoodTrial	 1.5	 bl
36	 2	 0	 x	 LineStimuli//1.5/stimNo131r0c0v1.5.jpg	 r	 8.226	 GoodTrial	 1.5	 bl
37	 2	 0	 x	 LineStimuli//1.5/stimNo134r0c0v1.5.jpg	 r	 6.566	 GoodTrial	 1.5	 bl
38	 2	 1	 right	 LineStimuli//1.5/stimNo98r8c21v1.5.jpg	 l	 6.599	 GoodTrial	 1.5	 bl
39	 2	 0	 x	 LineStimuli//1.5/stimNo137r0c0v1.5.jpg	 r	 6.025	 GoodTrial	 1.5	 bl
40	 2	 0	 x	 LineStimuli//1.5/stimNo157r0c0v1.5.jpg	 r	 6.581	 GoodTrial	 1.5	 bl
41	 2	 1	 left	 LineStimuli//1.5/stimNo85r2c5v1.5.jpg	 r	 6.345	 GoodTrial	 1.5	 bl
42	 2	 1	 left	 LineStimuli//1.5/stimNo89r8c9v1.5.jpg	 l	 6.952	 GoodTrial	 1.5	 bl
43	 2	 0	 x	 LineStimuli//1.5/stimNo147r0c0v1.5.jpg	 r	 4.406	 GoodTrial	 1.5	 bl
44	 2	 0	 x	 LineStimuli//1.5/stimNo144r0c0v1.5.jpg	 r	 5.340	 GoodTrial	 1.5	 bl
45	 2	 1	 left	 LineStimuli//1.5/stimNo106r3c7v1.5.jpg	 r	 5.766	 GoodTrial	 1.5	 bl
46	 2	 1	 right	 LineStimuli//1.5/stimNo108r13c15v1.5.jpg	 r	 7.374	 GoodTrial	 1.5	 bl
47	 2	 1	 left	 LineStimuli//1.5/stimNo94r10c6v1.5.jpg	 r	 5.148	 GoodTrial	 1.5	 bl
48	 2	 1	 left	 LineStimuli//1.5/stimNo102r7c6v1.5.jpg	 r	 6.359	 GoodTrial	 1.5	 bl
49	 2	 1	 left	 LineStimuli//1.5/stimNo88r6c7v1.5.jpg	 r	 7.776	 GoodTrial	 1.5	 bl
50	 2	 1	 left	 LineStimuli//1.5/stimNo117r7c8v1.5.jpg	 l	 4.489	 GoodTrial	 1.5	 bl
1	 3	 1	 right	 LineStimuli//3.8/stimNo102r10c17v3.8.jpg	 l	 1.599	 GoodTrial	 3.8	 bl
2	 3	 1	 right	 LineStimuli//3.8/stimNo84r9c19v3.8.jpg	 l	 1.540	 GoodTrial	 3.8	 bl
3	 3	 0	 x	 LineStimuli//3.8/stimNo143r0c0v3.8.jpg	 r	 2.640	 GoodTrial	 3.8	 bl
4	 3	 0	 x	 LineStimuli//3.8/stimNo129r0c0v3.8.jpg	 r	 2.498	 GoodTrial	 3.8	 bl
5	 3	 1	 right	 LineStimuli//3.8/stimNo90r8c17v3.8.jpg	 l	 1.536	 GoodTrial	 3.8	 bl
6	 3	 0	 x	 LineStimuli//3.8/stimNo130r0c0v3.8.jpg	 r	 2.244	 GoodTrial	 3.8	 bl
7	 3	 1	 right	 LineStimuli//3.8/stimNo117r6c17v3.8.jpg	 l	 1.493	 GoodTrial	 3.8	 bl
8	 3	 1	 left	 LineStimuli//3.8/stimNo116r7c3v3.8.jpg	 l	 1.529	 GoodTrial	 3.8	 bl
9	 3	 0	 x	 LineStimuli//3.8/stimNo150r0c0v3.8.jpg	 r	 2.117	 GoodTrial	 3.8	 bl
10	 3	 1	 left	 LineStimuli//3.8/stimNo108r3c6v3.8.jpg	 l	 1.607	 GoodTrial	 3.8	 bl
11	 3	 0	 x	 LineStimuli//3.8/stimNo159r0c0v3.8.jpg	 r	 2.486	 GoodTrial	 3.8	 bl
12	 3	 0	 x	 LineStimuli//3.8/stimNo133r0c0v3.8.jpg	 r	 1.918	 GoodTrial	 3.8	 bl
13	 3	 1	 left	 LineStimuli//3.8/stimNo104r12c8v3.8.jpg	 l	 1.589	 GoodTrial	 3.8	 bl
14	 3	 0	 x	 LineStimuli//3.8/stimNo158r0c0v3.8.jpg	 r	 2.144	 GoodTrial	 3.8	 bl
15	 3	 1	 left	 LineStimuli//3.8/stimNo97r15c9v3.8.jpg	 l	 1.705	 GoodTrial	 3.8	 bl
16	 3	 0	 x	 LineStimuli//3.8/stimNo141r0c0v3.8.jpg	 r	 1.915	 GoodTrial	 3.8	 bl
17	 3	 0	 x	 LineStimuli//3.8/stimNo155r0c0v3.8.jpg	 r	 1.841	 GoodTrial	 3.8	 bl
18	 3	 1	 left	 LineStimuli//3.8/stimNo89r10c7v3.8.jpg	 l	 1.589	 GoodTrial	 3.8	 bl
19	 3	 1	 left	 LineStimuli//3.8/stimNo100r13c6v3.8.jpg	 l	 1.631	 GoodTrial	 3.8	 bl
20	 3	 1	 left	 LineStimuli//3.8/stimNo106r9c9v3.8.jpg	 l	 1.833	 GoodTrial	 3.8	 bl
21	 3	 0	 x	 LineStimuli//3.8/stimNo122r0c0v3.8.jpg	 r	 2.256	 GoodTrial	 3.8	 bl
22	 3	 1	 left	 LineStimuli//3.8/stimNo113r14c9v3.8.jpg	 l	 1.651	 GoodTrial	 3.8	 bl
23	 3	 0	 x	 LineStimuli//3.8/stimNo153r0c0v3.8.jpg	 r	 2.600	 GoodTrial	 3.8	 bl
24	 3	 1	 right	 LineStimuli//3.8/stimNo88r10c17v3.8.jpg	 l	 1.582	 GoodTrial	 3.8	 bl
25	 3	 0	 x	 LineStimuli//3.8/stimNo127r0c0v3.8.jpg	 r	 2.698	 GoodTrial	 3.8	 bl
26	 3	 1	 left	 LineStimuli//3.8/stimNo119r9c8v3.8.jpg	 l	 1.640	 GoodTrial	 3.8	 bl
27	 3	 1	 left	 LineStimuli//3.8/stimNo86r7c7v3.8.jpg	 l	 1.917	 GoodTrial	 3.8	 bl
28	 3	 0	 x	 LineStimuli//3.8/stimNo136r0c0v3.8.jpg	 r	 2.610	 GoodTrial	 3.8	 bl
29	 3	 1	 left	 LineStimuli//3.8/stimNo103r11c7v3.8.jpg	 l	 1.582	 GoodTrial	 3.8	 bl
30	 3	 1	 left	 LineStimuli//3.8/stimNo98r2c9v3.8.jpg	 l	 1.777	 GoodTrial	 3.8	 bl
31	 3	 0	 x	 LineStimuli//3.8/stimNo142r0c0v3.8.jpg	 r	 2.840	 GoodTrial	 3.8	 bl
32	 3	 1	 right	 LineStimuli//3.8/stimNo101r12c17v3.8.jpg	 l	 1.744	 GoodTrial	 3.8	 bl
33	 3	 0	 x	 LineStimuli//3.8/stimNo149r0c0v3.8.jpg	 r	 2.401	 GoodTrial	 3.8	 bl
34	 3	 0	 x	 LineStimuli//3.8/stimNo131r0c0v3.8.jpg	 r	 2.670	 GoodTrial	 3.8	 bl
35	 3	 1	 right	 LineStimuli//3.8/stimNo107r9c18v3.8.jpg	 l	 1.673	 GoodTrial	 3.8	 bl
36	 3	 1	 right	 LineStimuli//3.8/stimNo81r3c21v3.8.jpg	 l	 1.708	 GoodTrial	 3.8	 bl
37	 3	 1	 right	 LineStimuli//3.8/stimNo85r3c13v3.8.jpg	 l	 1.628	 GoodTrial	 3.8	 bl
38	 3	 1	 left	 LineStimuli//3.8/stimNo109r11c8v3.8.jpg	 l	 1.706	 GoodTrial	 3.8	 bl
39	 3	 1	 right	 LineStimuli//3.8/stimNo87r6c13v3.8.jpg	 l	 1.519	 GoodTrial	 3.8	 bl
40	 3	 1	 right	 LineStimuli//3.8/stimNo111r15c20v3.8.jpg	 l	 1.699	 GoodTrial	 3.8	 bl
41	 3	 0	 x	 LineStimuli//3.8/stimNo148r0c0v3.8.jpg	 r	 2.794	 GoodTrial	 3.8	 bl
42	 3	 1	 right	 LineStimuli//3.8/stimNo94r6c17v3.8.jpg	 l	 1.559	 GoodTrial	 3.8	 bl
43	 3	 0	 x	 LineStimuli//3.8/stimNo124r0c0v3.8.jpg	 r	 3.299	 GoodTrial	 3.8	 bl
44	 3	 0	 x	 LineStimuli//3.8/stimNo125r0c0v3.8.jpg	 r	 2.683	 GoodTrial	 3.8	 bl
45	 3	 1	 right	 LineStimuli//3.8/stimNo96r2c13v3.8.jpg	 l	 1.645	 GoodTrial	 3.8	 bl
46	 3	 0	 x	 LineStimuli//3.8/stimNo139r0c0v3.8.jpg	 r	 2.272	 GoodTrial	 3.8	 bl
47	 3	 0	 x	 LineStimuli//3.8/stimNo147r0c0v3.8.jpg	 r	 2.329	 GoodTrial	 3.8	 bl
48	 3	 0	 x	 LineStimuli//3.8/stimNo156r0c0v3.8.jpg	 r	 2.500	 GoodTrial	 3.8	 bl
49	 3	 1	 right	 LineStimuli//3.8/stimNo114r10c14v3.8.jpg	 l	 1.756	 GoodTrial	 3.8	 bl
50	 3	 0	 x	 LineStimuli//3.8/stimNo134r0c0v3.8.jpg	 r	 2.544	 GoodTrial	 3.8	 bl
1	 4	 0	 x	 LineStimuli//1.8/stimNo160r0c0v1.8.jpg	 r	 4.602	 GoodTrial	 1.8	 bl
2	 4	 0	 x	 LineStimuli//1.8/stimNo154r0c0v1.8.jpg	 r	 4.886	 GoodTrial	 1.8	 bl
3	 4	 1	 left	 LineStimuli//1.8/stimNo116r4c7v1.8.jpg	 l	 3.008	 GoodTrial	 1.8	 bl
4	 4	 1	 left	 LineStimuli//1.8/stimNo95r4c9v1.8.jpg	 l	 1.891	 GoodTrial	 1.8	 bl
5	 4	 1	 left	 LineStimuli//1.8/stimNo91r14c4v1.8.jpg	 l	 2.462	 GoodTrial	 1.8	 bl
6	 4	 1	 left	 LineStimuli//1.8/stimNo103r15c10v1.8.jpg	 l	 2.189	 GoodTrial	 1.8	 bl
7	 4	 0	 x	 LineStimuli//1.8/stimNo151r0c0v1.8.jpg	 r	 5.544	 GoodTrial	 1.8	 bl
8	 4	 1	 left	 LineStimuli//1.8/stimNo81r6c8v1.8.jpg	 l	 2.031	 GoodTrial	 1.8	 bl
9	 4	 1	 left	 LineStimuli//1.8/stimNo96r13c2v1.8.jpg	 l	 2.097	 GoodTrial	 1.8	 bl
10	 4	 0	 x	 LineStimuli//1.8/stimNo148r0c0v1.8.jpg	 r	 5.450	 GoodTrial	 1.8	 bl
11	 4	 0	 x	 LineStimuli//1.8/stimNo141r0c0v1.8.jpg	 r	 3.352	 GoodTrial	 1.8	 bl
12	 4	 0	 x	 LineStimuli//1.8/stimNo156r0c0v1.8.jpg	 r	 4.354	 GoodTrial	 1.8	 bl
13	 4	 1	 left	 LineStimuli//1.8/stimNo120r14c9v1.8.jpg	 l	 2.156	 GoodTrial	 1.8	 bl
14	 4	 1	 left	 LineStimuli//1.8/stimNo94r13c8v1.8.jpg	 l	 2.003	 GoodTrial	 1.8	 bl
15	 4	 1	 right	 LineStimuli//1.8/stimNo99r12c16v1.8.jpg	 l	 1.723	 GoodTrial	 1.8	 bl
16	 4	 1	 right	 LineStimuli//1.8/stimNo108r9c21v1.8.jpg	 l	 1.992	 GoodTrial	 1.8	 bl
17	 4	 0	 x	 LineStimuli//1.8/stimNo133r0c0v1.8.jpg	 r	 5.933	 GoodTrial	 1.8	 bl
18	 4	 0	 x	 LineStimuli//1.8/stimNo134r0c0v1.8.jpg	 r	 4.853	 GoodTrial	 1.8	 bl
19	 4	 0	 x	 LineStimuli//1.8/stimNo153r0c0v1.8.jpg	 r	 5.517	 GoodTrial	 1.8	 bl
20	 4	 0	 x	 LineStimuli//1.8/stimNo152r0c0v1.8.jpg	 r	 4.984	 GoodTrial	 1.8	 bl
21	 4	 1	 right	 LineStimuli//1.8/stimNo114r8c13v1.8.jpg	 l	 1.767	 GoodTrial	 1.8	 bl
22	 4	 1	 left	 LineStimuli//1.8/stimNo107r5c4v1.8.jpg	 l	 1.799	 GoodTrial	 1.8	 bl
23	 4	 0	 x	 LineStimuli//1.8/stimNo138r0c0v1.8.jpg	 r	 5.318	 GoodTrial	 1.8	 bl
24	 4	 1	 right	 LineStimuli//1.8/stimNo83r6c13v1.8.jpg	 l	 1.960	 GoodTrial	 1.8	 bl
25	 4	 0	 x	 LineStimuli//1.8/stimNo150r0c0v1.8.jpg	 r	 3.653	 GoodTrial	 1.8	 bl
26	 4	 1	 right	 LineStimuli//1.8/stimNo93r3c17v1.8.jpg	 l	 4.008	 GoodTrial	 1.8	 bl
27	 4	 1	 left	 LineStimuli//1.8/stimNo98r15c5v1.8.jpg	 l	 2.150	 GoodTrial	 1.8	 bl
28	 4	 1	 right	 LineStimuli//1.8/stimNo101r4c13v1.8.jpg	 l	 1.771	 GoodTrial	 1.8	 bl
29	 4	 1	 right	 LineStimuli//1.8/stimNo104r3c21v1.8.jpg	 l	 1.807	 GoodTrial	 1.8	 bl
30	 4	 0	 x	 LineStimuli//1.8/stimNo124r0c0v1.8.jpg	 r	 3.325	 GoodTrial	 1.8	 bl
31	 4	 0	 x	 LineStimuli//1.8/stimNo139r0c0v1.8.jpg	 r	 4.856	 GoodTrial	 1.8	 bl
32	 4	 0	 x	 LineStimuli//1.8/stimNo131r0c0v1.8.jpg	 r	 3.686	 GoodTrial	 1.8	 bl
33	 4	 1	 right	 LineStimuli//1.8/stimNo97r15c18v1.8.jpg	 l	 1.969	 GoodTrial	 1.8	 bl
34	 4	 0	 x	 LineStimuli//1.8/stimNo143r0c0v1.8.jpg	 r	 3.843	 GoodTrial	 1.8	 bl
35	 4	 1	 right	 LineStimuli//1.8/stimNo90r15c13v1.8.jpg	 r	 3.805	 GoodTrial	 1.8	 bl
36	 4	 0	 x	 LineStimuli//1.8/stimNo125r0c0v1.8.jpg	 r	 4.940	 GoodTrial	 1.8	 bl
37	 4	 1	 right	 LineStimuli//1.8/stimNo112r6c15v1.8.jpg	 l	 1.714	 GoodTrial	 1.8	 bl
38	 4	 0	 x	 LineStimuli//1.8/stimNo145r0c0v1.8.jpg	 r	 4.615	 GoodTrial	 1.8	 bl
39	 4	 1	 right	 LineStimuli//1.8/stimNo109r7c17v1.8.jpg	 l	 1.577	 GoodTrial	 1.8	 bl
40	 4	 0	 x	 LineStimuli//1.8/stimNo123r0c0v1.8.jpg	 r	 3.857	 GoodTrial	 1.8	 bl
41	 4	 0	 x	 LineStimuli//1.8/stimNo137r0c0v1.8.jpg	 r	 3.678	 GoodTrial	 1.8	 bl
42	 4	 1	 right	 LineStimuli//1.8/stimNo102r14c17v1.8.jpg	 l	 2.392	 GoodTrial	 1.8	 bl
43	 4	 0	 x	 LineStimuli//1.8/stimNo126r0c0v1.8.jpg	 r	 3.418	 GoodTrial	 1.8	 bl
44	 4	 1	 right	 LineStimuli//1.8/stimNo100r9c13v1.8.jpg	 r	 3.203	 GoodTrial	 1.8	 bl
45	 4	 0	 x	 LineStimuli//1.8/stimNo159r0c0v1.8.jpg	 r	 4.217	 GoodTrial	 1.8	 bl
46	 4	 1	 right	 LineStimuli//1.8/stimNo84r11c21v1.8.jpg	 l	 2.039	 GoodTrial	 1.8	 bl
47	 4	 0	 x	 LineStimuli//1.8/stimNo135r0c0v1.8.jpg	 r	 4.544	 GoodTrial	 1.8	 bl
48	 4	 1	 right	 LineStimuli//1.8/stimNo82r7c18v1.8.jpg	 l	 1.735	 GoodTrial	 1.8	 bl
49	 4	 1	 left	 LineStimuli//1.8/stimNo87r14c2v1.8.jpg	 l	 2.512	 GoodTrial	 1.8	 bl
50	 4	 1	 right	 LineStimuli//1.8/stimNo111r4c21v1.8.jpg	 l	 1.688	 GoodTrial	 1.8	 bl
1	 5	 0	 x	 LineStimuli//4.3/stimNo157r0c0v4.3.jpg	 r	 2.947	 GoodTrial	 4.3	 bl
2	 5	 0	 x	 LineStimuli//4.3/stimNo128r0c0v4.3.jpg	 r	 2.634	 GoodTrial	 4.3	 bl
3	 5	 1	 right	 LineStimuli//4.3/stimNo81r10c14v4.3.jpg	 l	 1.515	 GoodTrial	 4.3	 bl
4	 5	 0	 x	 LineStimuli//4.3/stimNo140r0c0v4.3.jpg	 r	 1.795	 GoodTrial	 4.3	 bl
5	 5	 1	 left	 LineStimuli//4.3/stimNo107r2c8v4.3.jpg	 l	 1.489	 GoodTrial	 4.3	 bl
6	 5	 1	 right	 LineStimuli//4.3/stimNo114r10c15v4.3.jpg	 l	 1.487	 GoodTrial	 4.3	 bl
7	 5	 0	 x	 LineStimuli//4.3/stimNo134r0c0v4.3.jpg	 r	 2.357	 GoodTrial	 4.3	 bl
8	 5	 1	 left	 LineStimuli//4.3/stimNo83r4c2v4.3.jpg	 l	 1.503	 GoodTrial	 4.3	 bl
9	 5	 1	 left	 LineStimuli//4.3/stimNo85r3c5v4.3.jpg	 l	 1.502	 GoodTrial	 4.3	 bl
10	 5	 1	 right	 LineStimuli//4.3/stimNo118r11c13v4.3.jpg	 l	 1.576	 GoodTrial	 4.3	 bl
11	 5	 0	 x	 LineStimuli//4.3/stimNo131r0c0v4.3.jpg	 r	 2.313	 GoodTrial	 4.3	 bl
12	 5	 1	 right	 LineStimuli//4.3/stimNo96r4c19v4.3.jpg	 l	 1.535	 GoodTrial	 4.3	 bl
13	 5	 0	 x	 LineStimuli//4.3/stimNo124r0c0v4.3.jpg	 r	 1.988	 GoodTrial	 4.3	 bl
14	 5	 0	 x	 LineStimuli//4.3/stimNo123r0c0v4.3.jpg	 r	 2.051	 GoodTrial	 4.3	 bl
15	 5	 1	 left	 LineStimuli//4.3/stimNo110r6c7v4.3.jpg	 l	 1.507	 GoodTrial	 4.3	 bl
16	 5	 1	 left	 LineStimuli//4.3/stimNo104r15c2v4.3.jpg	 l	 1.680	 GoodTrial	 4.3	 bl
17	 5	 1	 left	 LineStimuli//4.3/stimNo106r8c2v4.3.jpg	 l	 1.770	 GoodTrial	 4.3	 bl
18	 5	 0	 x	 LineStimuli//4.3/stimNo122r0c0v4.3.jpg	 r	 2.509	 GoodTrial	 4.3	 bl
19	 5	 0	 x	 LineStimuli//4.3/stimNo149r0c0v4.3.jpg	 r	 2.257	 GoodTrial	 4.3	 bl
20	 5	 0	 x	 LineStimuli//4.3/stimNo135r0c0v4.3.jpg	 r	 2.487	 GoodTrial	 4.3	 bl
21	 5	 0	 x	 LineStimuli//4.3/stimNo145r0c0v4.3.jpg	 r	 1.889	 GoodTrial	 4.3	 bl
22	 5	 1	 left	 LineStimuli//4.3/stimNo86r7c3v4.3.jpg	 l	 1.465	 GoodTrial	 4.3	 bl
23	 5	 0	 x	 LineStimuli//4.3/stimNo130r0c0v4.3.jpg	 r	 1.932	 GoodTrial	 4.3	 bl
24	 5	 1	 left	 LineStimuli//4.3/stimNo95r11c9v4.3.jpg	 l	 1.642	 GoodTrial	 4.3	 bl
25	 5	 1	 right	 LineStimuli//4.3/stimNo119r12c17v4.3.jpg	 l	 1.503	 GoodTrial	 4.3	 bl
26	 5	 0	 x	 LineStimuli//4.3/stimNo127r0c0v4.3.jpg	 r	 1.940	 GoodTrial	 4.3	 bl
27	 5	 1	 right	 LineStimuli//4.3/stimNo82r7c18v4.3.jpg	 l	 1.555	 GoodTrial	 4.3	 bl
28	 5	 0	 x	 LineStimuli//4.3/stimNo136r0c0v4.3.jpg	 r	 1.939	 GoodTrial	 4.3	 bl
29	 5	 1	 left	 LineStimuli//4.3/stimNo93r9c9v4.3.jpg	 l	 1.486	 GoodTrial	 4.3	 bl
30	 5	 0	 x	 LineStimuli//4.3/stimNo142r0c0v4.3.jpg	 r	 1.892	 GoodTrial	 4.3	 bl
31	 5	 0	 x	 LineStimuli//4.3/stimNo144r0c0v4.3.jpg	 r	 1.939	 GoodTrial	 4.3	 bl
32	 5	 1	 left	 LineStimuli//4.3/stimNo111r10c9v4.3.jpg	 l	 1.503	 GoodTrial	 4.3	 bl
33	 5	 0	 x	 LineStimuli//4.3/stimNo150r0c0v4.3.jpg	 r	 2.132	 GoodTrial	 4.3	 bl
34	 5	 1	 right	 LineStimuli//4.3/stimNo84r15c20v4.3.jpg	 l	 1.582	 GoodTrial	 4.3	 bl
35	 5	 0	 x	 LineStimuli//4.3/stimNo137r0c0v4.3.jpg	 r	 2.057	 GoodTrial	 4.3	 bl
36	 5	 1	 right	 LineStimuli//4.3/stimNo91r9c13v4.3.jpg	 l	 1.832	 GoodTrial	 4.3	 bl
37	 5	 0	 x	 LineStimuli//4.3/stimNo125r0c0v4.3.jpg	 r	 2.050	 GoodTrial	 4.3	 bl
38	 5	 0	 x	 LineStimuli//4.3/stimNo133r0c0v4.3.jpg	 r	 1.955	 GoodTrial	 4.3	 bl
39	 5	 1	 right	 LineStimuli//4.3/stimNo92r2c20v4.3.jpg	 l	 1.585	 GoodTrial	 4.3	 bl
40	 5	 0	 x	 LineStimuli//4.3/stimNo160r0c0v4.3.jpg	 r	 2.148	 GoodTrial	 4.3	 bl
41	 5	 0	 x	 LineStimuli//4.3/stimNo155r0c0v4.3.jpg	 r	 2.057	 GoodTrial	 4.3	 bl
42	 5	 1	 left	 LineStimuli//4.3/stimNo103r10c4v4.3.jpg	 l	 1.561	 GoodTrial	 4.3	 bl
43	 5	 1	 left	 LineStimuli//4.3/stimNo87r3c5v4.3.jpg	 l	 1.581	 GoodTrial	 4.3	 bl
44	 5	 1	 right	 LineStimuli//4.3/stimNo99r14c18v4.3.jpg	 l	 1.587	 GoodTrial	 4.3	 bl
45	 5	 1	 right	 LineStimuli//4.3/stimNo89r3c17v4.3.jpg	 l	 1.572	 GoodTrial	 4.3	 bl
46	 5	 0	 x	 LineStimuli//4.3/stimNo151r0c0v4.3.jpg	 r	 1.836	 GoodTrial	 4.3	 bl
47	 5	 0	 x	 LineStimuli//4.3/stimNo158r0c0v4.3.jpg	 r	 1.832	 GoodTrial	 4.3	 bl
48	 5	 0	 x	 LineStimuli//4.3/stimNo132r0c0v4.3.jpg	 r	 1.807	 GoodTrial	 4.3	 bl
49	 5	 0	 x	 LineStimuli//4.3/stimNo159r0c0v4.3.jpg	 r	 1.681	 GoodTrial	 4.3	 bl
50	 5	 1	 right	 LineStimuli//4.3/stimNo112r10c16v4.3.jpg	 l	 1.613	 GoodTrial	 4.3	 bl
1	 6	 0	 x	 LineStimuli//2.3/stimNo156r0c0v2.3.jpg	 r	 3.528	 GoodTrial	 2.3	 bl
2	 6	 1	 right	 LineStimuli//2.3/stimNo87r13c19v2.3.jpg	 l	 1.667	 GoodTrial	 2.3	 bl
3	 6	 0	 x	 LineStimuli//2.3/stimNo149r0c0v2.3.jpg	 r	 2.996	 GoodTrial	 2.3	 bl
4	 6	 0	 x	 LineStimuli//2.3/stimNo140r0c0v2.3.jpg	 r	 3.208	 GoodTrial	 2.3	 bl
5	 6	 0	 x	 LineStimuli//2.3/stimNo155r0c0v2.3.jpg	 r	 2.962	 GoodTrial	 2.3	 bl
6	 6	 0	 x	 LineStimuli//2.3/stimNo151r0c0v2.3.jpg	 r	 4.695	 GoodTrial	 2.3	 bl
7	 6	 0	 x	 LineStimuli//2.3/stimNo154r0c0v2.3.jpg	 r	 4.135	 GoodTrial	 2.3	 bl
8	 6	 0	 x	 LineStimuli//2.3/stimNo145r0c0v2.3.jpg	 r	 3.875	 GoodTrial	 2.3	 bl
9	 6	 0	 x	 LineStimuli//2.3/stimNo146r0c0v2.3.jpg	 r	 3.370	 GoodTrial	 2.3	 bl
10	 6	 0	 x	 LineStimuli//2.3/stimNo132r0c0v2.3.jpg	 r	 4.215	 GoodTrial	 2.3	 bl
11	 6	 1	 left	 LineStimuli//2.3/stimNo108r15c6v2.3.jpg	 l	 1.852	 GoodTrial	 2.3	 bl
12	 6	 0	 x	 LineStimuli//2.3/stimNo152r0c0v2.3.jpg	 r	 2.827	 GoodTrial	 2.3	 bl
13	 6	 1	 left	 LineStimuli//2.3/stimNo82r12c4v2.3.jpg	 l	 1.750	 GoodTrial	 2.3	 bl
14	 6	 1	 left	 LineStimuli//2.3/stimNo112r3c2v2.3.jpg	 l	 1.824	 GoodTrial	 2.3	 bl
15	 6	 0	 x	 LineStimuli//2.3/stimNo136r0c0v2.3.jpg	 r	 3.622	 GoodTrial	 2.3	 bl
16	 6	 1	 right	 LineStimuli//2.3/stimNo90r14c21v2.3.jpg	 l	 1.574	 GoodTrial	 2.3	 bl
17	 6	 0	 x	 LineStimuli//2.3/stimNo131r0c0v2.3.jpg	 r	 2.908	 GoodTrial	 2.3	 bl
18	 6	 1	 left	 LineStimuli//2.3/stimNo100r8c6v2.3.jpg	 l	 1.656	 GoodTrial	 2.3	 bl
19	 6	 0	 x	 LineStimuli//2.3/stimNo138r0c0v2.3.jpg	 r	 2.380	 GoodTrial	 2.3	 bl
20	 6	 1	 right	 LineStimuli//2.3/stimNo102r6c18v2.3.jpg	 l	 1.582	 GoodTrial	 2.3	 bl
21	 6	 0	 x	 LineStimuli//2.3/stimNo124r0c0v2.3.jpg	 r	 2.420	 GoodTrial	 2.3	 bl
22	 6	 1	 left	 LineStimuli//2.3/stimNo95r13c9v2.3.jpg	 l	 1.670	 GoodTrial	 2.3	 bl
23	 6	 1	 right	 LineStimuli//2.3/stimNo91r11c20v2.3.jpg	 l	 1.587	 GoodTrial	 2.3	 bl
24	 6	 1	 left	 LineStimuli//2.3/stimNo104r2c4v2.3.jpg	 l	 1.765	 GoodTrial	 2.3	 bl
25	 6	 1	 left	 LineStimuli//2.3/stimNo119r3c2v2.3.jpg	 l	 1.578	 GoodTrial	 2.3	 bl
26	 6	 0	 x	 LineStimuli//2.3/stimNo141r0c0v2.3.jpg	 r	 2.228	 GoodTrial	 2.3	 bl
27	 6	 0	 x	 LineStimuli//2.3/stimNo137r0c0v2.3.jpg	 r	 2.375	 GoodTrial	 2.3	 bl
28	 6	 0	 x	 LineStimuli//2.3/stimNo122r0c0v2.3.jpg	 r	 2.432	 GoodTrial	 2.3	 bl
29	 6	 1	 right	 LineStimuli//2.3/stimNo85r4c15v2.3.jpg	 l	 1.576	 GoodTrial	 2.3	 bl
30	 6	 0	 x	 LineStimuli//2.3/stimNo157r0c0v2.3.jpg	 r	 2.345	 GoodTrial	 2.3	 bl
31	 6	 1	 left	 LineStimuli//2.3/stimNo94r8c9v2.3.jpg	 l	 1.692	 GoodTrial	 2.3	 bl
32	 6	 0	 x	 LineStimuli//2.3/stimNo144r0c0v2.3.jpg	 r	 2.336	 GoodTrial	 2.3	 bl
33	 6	 0	 x	 LineStimuli//2.3/stimNo135r0c0v2.3.jpg	 r	 2.135	 GoodTrial	 2.3	 bl
34	 6	 0	 x	 LineStimuli//2.3/stimNo129r0c0v2.3.jpg	 r	 3.975	 GoodTrial	 2.3	 bl
35	 6	 1	 right	 LineStimuli//2.3/stimNo109r2c17v2.3.jpg	 l	 1.664	 GoodTrial	 2.3	 bl
36	 6	 1	 right	 LineStimuli//2.3/stimNo93r4c16v2.3.jpg	 l	 1.563	 GoodTrial	 2.3	 bl
37	 6	 1	 left	 LineStimuli//2.3/stimNo81r4c3v2.3.jpg	 l	 1.803	 GoodTrial	 2.3	 bl
38	 6	 1	 left	 LineStimuli//2.3/stimNo106r9c9v2.3.jpg	 l	 1.603	 GoodTrial	 2.3	 bl
39	 6	 1	 left	 LineStimuli//2.3/stimNo88r15c2v2.3.jpg	 l	 1.897	 GoodTrial	 2.3	 bl
40	 6	 0	 x	 LineStimuli//2.3/stimNo123r0c0v2.3.jpg	 r	 2.678	 GoodTrial	 2.3	 bl
41	 6	 0	 x	 LineStimuli//2.3/stimNo147r0c0v2.3.jpg	 r	 2.476	 GoodTrial	 2.3	 bl
42	 6	 1	 right	 LineStimuli//2.3/stimNo89r8c21v2.3.jpg	 l	 1.560	 GoodTrial	 2.3	 bl
43	 6	 1	 left	 LineStimuli//2.3/stimNo86r8c9v2.3.jpg	 l	 1.534	 GoodTrial	 2.3	 bl
44	 6	 1	 right	 LineStimuli//2.3/stimNo120r4c17v2.3.jpg	 l	 1.518	 GoodTrial	 2.3	 bl
45	 6	 1	 right	 LineStimuli//2.3/stimNo84r15c14v2.3.jpg	 l	 1.600	 GoodTrial	 2.3	 bl
46	 6	 1	 right	 LineStimuli//2.3/stimNo98r12c21v2.3.jpg	 l	 1.567	 GoodTrial	 2.3	 bl
47	 6	 0	 x	 LineStimuli//2.3/stimNo150r0c0v2.3.jpg	 r	 2.557	 GoodTrial	 2.3	 bl
48	 6	 1	 right	 LineStimuli//2.3/stimNo110r15c19v2.3.jpg	 l	 1.768	 GoodTrial	 2.3	 bl
49	 6	 1	 right	 LineStimuli//2.3/stimNo101r8c14v2.3.jpg	 l	 1.588	 GoodTrial	 2.3	 bl
50	 6	 1	 left	 LineStimuli//2.3/stimNo117r11c8v2.3.jpg	 l	 1.601	 GoodTrial	 2.3	 bl
1	 7	 0	 x	 LineStimuli//3.3/stimNo138r0c0v3.3.jpg	 r	 2.113	 GoodTrial	 3.3	 bl
2	 7	 1	 left	 LineStimuli//3.3/stimNo85r6c4v3.3.jpg	 l	 1.502	 GoodTrial	 3.3	 bl
3	 7	 1	 right	 LineStimuli//3.3/stimNo99r6c17v3.3.jpg	 l	 1.500	 GoodTrial	 3.3	 bl
4	 7	 0	 x	 LineStimuli//3.3/stimNo153r0c0v3.3.jpg	 r	 2.261	 GoodTrial	 3.3	 bl
5	 7	 0	 x	 LineStimuli//3.3/stimNo155r0c0v3.3.jpg	 r	 2.215	 GoodTrial	 3.3	 bl
6	 7	 0	 x	 LineStimuli//3.3/stimNo136r0c0v3.3.jpg	 r	 2.057	 GoodTrial	 3.3	 bl
7	 7	 1	 right	 LineStimuli//3.3/stimNo102r13c13v3.3.jpg	 l	 1.899	 GoodTrial	 3.3	 bl
8	 7	 1	 right	 LineStimuli//3.3/stimNo113r13c15v3.3.jpg	 l	 1.659	 GoodTrial	 3.3	 bl
9	 7	 1	 right	 LineStimuli//3.3/stimNo114r11c21v3.3.jpg	 l	 1.667	 GoodTrial	 3.3	 bl
10	 7	 0	 x	 LineStimuli//3.3/stimNo121r0c0v3.3.jpg	 r	 2.160	 GoodTrial	 3.3	 bl
11	 7	 0	 x	 LineStimuli//3.3/stimNo141r0c0v3.3.jpg	 r	 3.568	 GoodTrial	 3.3	 bl
12	 7	 0	 x	 LineStimuli//3.3/stimNo147r0c0v3.3.jpg	 r	 1.910	 GoodTrial	 3.3	 bl
13	 7	 1	 left	 LineStimuli//3.3/stimNo81r15c8v3.3.jpg	 l	 1.640	 GoodTrial	 3.3	 bl
14	 7	 1	 left	 LineStimuli//3.3/stimNo111r15c7v3.3.jpg	 l	 1.477	 GoodTrial	 3.3	 bl
15	 7	 1	 left	 LineStimuli//3.3/stimNo94r14c9v3.3.jpg	 l	 1.498	 GoodTrial	 3.3	 bl
16	 7	 0	 x	 LineStimuli//3.3/stimNo126r0c0v3.3.jpg	 r	 2.073	 GoodTrial	 3.3	 bl
17	 7	 0	 x	 LineStimuli//3.3/stimNo135r0c0v3.3.jpg	 r	 1.888	 GoodTrial	 3.3	 bl
18	 7	 0	 x	 LineStimuli//3.3/stimNo152r0c0v3.3.jpg	 r	 1.870	 GoodTrial	 3.3	 bl
19	 7	 1	 right	 LineStimuli//3.3/stimNo84r6c16v3.3.jpg	 l	 1.645	 GoodTrial	 3.3	 bl
20	 7	 0	 x	 LineStimuli//3.3/stimNo122r0c0v3.3.jpg	 r	 1.947	 GoodTrial	 3.3	 bl
21	 7	 1	 left	 LineStimuli//3.3/stimNo103r6c6v3.3.jpg	 l	 1.688	 GoodTrial	 3.3	 bl
22	 7	 1	 right	 LineStimuli//3.3/stimNo87r15c13v3.3.jpg	 l	 1.614	 GoodTrial	 3.3	 bl
23	 7	 0	 x	 LineStimuli//3.3/stimNo139r0c0v3.3.jpg	 r	 1.796	 GoodTrial	 3.3	 bl
24	 7	 0	 x	 LineStimuli//3.3/stimNo133r0c0v3.3.jpg	 r	 2.157	 GoodTrial	 3.3	 bl
25	 7	 1	 right	 LineStimuli//3.3/stimNo82r11c20v3.3.jpg	 l	 1.565	 GoodTrial	 3.3	 bl
26	 7	 1	 left	 LineStimuli//3.3/stimNo104r4c4v3.3.jpg	 l	 1.616	 GoodTrial	 3.3	 bl
27	 7	 1	 left	 LineStimuli//3.3/stimNo83r8c3v3.3.jpg	 l	 1.569	 GoodTrial	 3.3	 bl
28	 7	 0	 x	 LineStimuli//3.3/stimNo130r0c0v3.3.jpg	 r	 2.143	 GoodTrial	 3.3	 bl
29	 7	 0	 x	 LineStimuli//3.3/stimNo129r0c0v3.3.jpg	 r	 1.958	 GoodTrial	 3.3	 bl
30	 7	 1	 right	 LineStimuli//3.3/stimNo97r6c13v3.3.jpg	 l	 1.612	 GoodTrial	 3.3	 bl
31	 7	 0	 x	 LineStimuli//3.3/stimNo151r0c0v3.3.jpg	 r	 2.341	 GoodTrial	 3.3	 bl
32	 7	 1	 right	 LineStimuli//3.3/stimNo98r4c21v3.3.jpg	 l	 1.537	 GoodTrial	 3.3	 bl
33	 7	 1	 left	 LineStimuli//3.3/stimNo108r13c2v3.3.jpg	 l	 1.601	 GoodTrial	 3.3	 bl
34	 7	 0	 x	 LineStimuli//3.3/stimNo132r0c0v3.3.jpg	 r	 2.304	 GoodTrial	 3.3	 bl
35	 7	 0	 x	 LineStimuli//3.3/stimNo123r0c0v3.3.jpg	 r	 1.804	 GoodTrial	 3.3	 bl
36	 7	 1	 left	 LineStimuli//3.3/stimNo117r2c5v3.3.jpg	 l	 1.519	 GoodTrial	 3.3	 bl
37	 7	 1	 right	 LineStimuli//3.3/stimNo96r8c18v3.3.jpg	 l	 1.607	 GoodTrial	 3.3	 bl
38	 7	 0	 x	 LineStimuli//3.3/stimNo158r0c0v3.3.jpg	 r	 2.198	 GoodTrial	 3.3	 bl
39	 7	 0	 x	 LineStimuli//3.3/stimNo157r0c0v3.3.jpg	 r	 2.008	 GoodTrial	 3.3	 bl
40	 7	 1	 left	 LineStimuli//3.3/stimNo93r3c5v3.3.jpg	 l	 1.464	 GoodTrial	 3.3	 bl
41	 7	 1	 left	 LineStimuli//3.3/stimNo90r2c9v3.3.jpg	 l	 1.631	 GoodTrial	 3.3	 bl
42	 7	 0	 x	 LineStimuli//3.3/stimNo131r0c0v3.3.jpg	 r	 1.735	 GoodTrial	 3.3	 bl
43	 7	 1	 left	 LineStimuli//3.3/stimNo106r9c9v3.3.jpg	 l	 1.525	 GoodTrial	 3.3	 bl
44	 7	 0	 x	 LineStimuli//3.3/stimNo144r0c0v3.3.jpg	 r	 1.741	 GoodTrial	 3.3	 bl
45	 7	 0	 x	 LineStimuli//3.3/stimNo128r0c0v3.3.jpg	 r	 2.289	 GoodTrial	 3.3	 bl
46	 7	 1	 left	 LineStimuli//3.3/stimNo100r3c3v3.3.jpg	 l	 1.559	 GoodTrial	 3.3	 bl
47	 7	 0	 x	 LineStimuli//3.3/stimNo146r0c0v3.3.jpg	 r	 2.067	 GoodTrial	 3.3	 bl
48	 7	 0	 x	 LineStimuli//3.3/stimNo154r0c0v3.3.jpg	 r	 1.938	 GoodTrial	 3.3	 bl
49	 7	 1	 right	 LineStimuli//3.3/stimNo91r12c16v3.3.jpg	 l	 1.617	 GoodTrial	 3.3	 bl
50	 7	 0	 x	 LineStimuli//3.3/stimNo156r0c0v3.3.jpg	 r	 1.720	 GoodTrial	 3.3	 bl
