Trial	Block	Target_pr	Target_side	Name	Key	RT	Message	Block_Type	Condition
1	 1	 1	 left	 LineStimuli//2.3/stimNo83r14c4v2.3.jpg	 l	 2.144	 GoodTrial	 2.3	 bl
2	 1	 0	 x	 LineStimuli//2.3/stimNo154r0c0v2.3.jpg	 r	 4.982	 GoodTrial	 2.3	 bl
3	 1	 1	 right	 LineStimuli//2.3/stimNo105r14c14v2.3.jpg	 l	 2.328	 GoodTrial	 2.3	 bl
4	 1	 1	 right	 LineStimuli//2.3/stimNo103r11c21v2.3.jpg	 l	 1.663	 GoodTrial	 2.3	 bl
5	 1	 1	 right	 LineStimuli//2.3/stimNo101r8c14v2.3.jpg	 l	 1.500	 GoodTrial	 2.3	 bl
6	 1	 0	 x	 LineStimuli//2.3/stimNo143r0c0v2.3.jpg	 r	 3.285	 GoodTrial	 2.3	 bl
7	 1	 0	 x	 LineStimuli//2.3/stimNo157r0c0v2.3.jpg	 r	 2.806	 GoodTrial	 2.3	 bl
8	 1	 1	 right	 LineStimuli//2.3/stimNo110r15c19v2.3.jpg	 l	 1.746	 GoodTrial	 2.3	 bl
9	 1	 1	 right	 LineStimuli//2.3/stimNo93r4c16v2.3.jpg	 l	 1.520	 GoodTrial	 2.3	 bl
10	 1	 0	 x	 LineStimuli//2.3/stimNo144r0c0v2.3.jpg	 r	 2.030	 GoodTrial	 2.3	 bl
11	 1	 0	 x	 LineStimuli//2.3/stimNo148r0c0v2.3.jpg	 r	 1.898	 GoodTrial	 2.3	 bl
12	 1	 0	 x	 LineStimuli//2.3/stimNo121r0c0v2.3.jpg	 r	 2.267	 GoodTrial	 2.3	 bl
13	 1	 1	 left	 LineStimuli//2.3/stimNo86r8c9v2.3.jpg	 l	 1.623	 GoodTrial	 2.3	 bl
14	 1	 1	 right	 LineStimuli//2.3/stimNo84r15c14v2.3.jpg	 r	 1.741	 GoodTrial	 2.3	 bl
15	 1	 0	 x	 LineStimuli//2.3/stimNo135r0c0v2.3.jpg	 r	 4.056	 GoodTrial	 2.3	 bl
16	 1	 0	 x	 LineStimuli//2.3/stimNo155r0c0v2.3.jpg	 r	 2.115	 GoodTrial	 2.3	 bl
17	 1	 0	 x	 LineStimuli//2.3/stimNo147r0c0v2.3.jpg	 r	 2.011	 GoodTrial	 2.3	 bl
18	 1	 0	 x	 LineStimuli//2.3/stimNo138r0c0v2.3.jpg	 r	 1.920	 GoodTrial	 2.3	 bl
19	 1	 1	 left	 LineStimuli//2.3/stimNo94r8c9v2.3.jpg	 l	 1.590	 GoodTrial	 2.3	 bl
20	 1	 0	 x	 LineStimuli//2.3/stimNo136r0c0v2.3.jpg	 r	 3.076	 GoodTrial	 2.3	 bl
21	 1	 1	 left	 LineStimuli//2.3/stimNo108r15c6v2.3.jpg	 l	 1.720	 GoodTrial	 2.3	 bl
22	 1	 1	 left	 LineStimuli//2.3/stimNo88r15c2v2.3.jpg	 l	 1.886	 GoodTrial	 2.3	 bl
23	 1	 1	 left	 LineStimuli//2.3/stimNo119r3c2v2.3.jpg	 l	 1.504	 GoodTrial	 2.3	 bl
24	 1	 0	 x	 LineStimuli//2.3/stimNo124r0c0v2.3.jpg	 r	 2.439	 GoodTrial	 2.3	 bl
25	 1	 1	 right	 LineStimuli//2.3/stimNo111r11c21v2.3.jpg	 l	 1.799	 GoodTrial	 2.3	 bl
26	 1	 0	 x	 LineStimuli//2.3/stimNo140r0c0v2.3.jpg	 r	 2.556	 GoodTrial	 2.3	 bl
27	 1	 1	 right	 LineStimuli//2.3/stimNo85r4c15v2.3.jpg	 l	 1.615	 GoodTrial	 2.3	 bl
28	 1	 1	 right	 LineStimuli//2.3/stimNo99r2c13v2.3.jpg	 l	 1.636	 GoodTrial	 2.3	 bl
29	 1	 1	 left	 LineStimuli//2.3/stimNo97r3c3v2.3.jpg	 l	 1.596	 GoodTrial	 2.3	 bl
30	 1	 0	 x	 LineStimuli//2.3/stimNo133r0c0v2.3.jpg	 r	 2.278	 GoodTrial	 2.3	 bl
31	 1	 1	 right	 LineStimuli//2.3/stimNo92r10c17v2.3.jpg	 l	 1.595	 GoodTrial	 2.3	 bl
32	 1	 0	 x	 LineStimuli//2.3/stimNo151r0c0v2.3.jpg	 r	 2.372	 GoodTrial	 2.3	 bl
33	 1	 0	 x	 LineStimuli//2.3/stimNo129r0c0v2.3.jpg	 r	 3.903	 GoodTrial	 2.3	 bl
34	 1	 1	 right	 LineStimuli//2.3/stimNo91r11c20v2.3.jpg	 l	 1.544	 GoodTrial	 2.3	 bl
35	 1	 0	 x	 LineStimuli//2.3/stimNo137r0c0v2.3.jpg	 r	 3.944	 GoodTrial	 2.3	 bl
36	 1	 1	 right	 LineStimuli//2.3/stimNo102r6c18v2.3.jpg	 l	 1.460	 GoodTrial	 2.3	 bl
37	 1	 1	 left	 LineStimuli//2.3/stimNo100r8c6v2.3.jpg	 l	 1.490	 GoodTrial	 2.3	 bl
38	 1	 1	 left	 LineStimuli//2.3/stimNo95r13c9v2.3.jpg	 l	 2.264	 GoodTrial	 2.3	 bl
39	 1	 1	 left	 LineStimuli//2.3/stimNo96r3c3v2.3.jpg	 l	 1.570	 GoodTrial	 2.3	 bl
40	 1	 0	 x	 LineStimuli//2.3/stimNo132r0c0v2.3.jpg	 r	 2.397	 GoodTrial	 2.3	 bl
41	 1	 0	 x	 LineStimuli//2.3/stimNo158r0c0v2.3.jpg	 r	 2.535	 GoodTrial	 2.3	 bl
42	 1	 0	 x	 LineStimuli//2.3/stimNo141r0c0v2.3.jpg	 r	 2.016	 GoodTrial	 2.3	 bl
43	 1	 0	 x	 LineStimuli//2.3/stimNo159r0c0v2.3.jpg	 r	 2.525	 GoodTrial	 2.3	 bl
44	 1	 1	 left	 LineStimuli//2.3/stimNo114r7c8v2.3.jpg	 l	 1.509	 GoodTrial	 2.3	 bl
45	 1	 0	 x	 LineStimuli//2.3/stimNo122r0c0v2.3.jpg	 r	 2.266	 GoodTrial	 2.3	 bl
46	 1	 0	 x	 LineStimuli//2.3/stimNo134r0c0v2.3.jpg	 r	 2.171	 GoodTrial	 2.3	 bl
47	 1	 1	 left	 LineStimuli//2.3/stimNo106r9c9v2.3.jpg	 l	 1.660	 GoodTrial	 2.3	 bl
48	 1	 0	 x	 LineStimuli//2.3/stimNo146r0c0v2.3.jpg	 r	 2.112	 GoodTrial	 2.3	 bl
49	 1	 0	 x	 LineStimuli//2.3/stimNo156r0c0v2.3.jpg	 r	 1.746	 GoodTrial	 2.3	 bl
50	 1	 1	 left	 LineStimuli//2.3/stimNo112r3c2v2.3.jpg	 l	 1.655	 GoodTrial	 2.3	 bl
1	 2	 0	 x	 LineStimuli//3.3/stimNo137r0c0v3.3.jpg	 r	 2.432	 GoodTrial	 3.3	 bl
2	 2	 1	 right	 LineStimuli//3.3/stimNo87r15c13v3.3.jpg	 l	 1.718	 GoodTrial	 3.3	 bl
3	 2	 0	 x	 LineStimuli//3.3/stimNo136r0c0v3.3.jpg	 r	 1.834	 GoodTrial	 3.3	 bl
4	 2	 1	 left	 LineStimuli//3.3/stimNo81r15c8v3.3.jpg	 l	 1.572	 GoodTrial	 3.3	 bl
5	 2	 1	 right	 LineStimuli//3.3/stimNo99r6c17v3.3.jpg	 l	 1.890	 GoodTrial	 3.3	 bl
6	 2	 1	 left	 LineStimuli//3.3/stimNo117r2c5v3.3.jpg	 l	 1.734	 GoodTrial	 3.3	 bl
7	 2	 0	 x	 LineStimuli//3.3/stimNo160r0c0v3.3.jpg	 r	 2.413	 GoodTrial	 3.3	 bl
8	 2	 0	 x	 LineStimuli//3.3/stimNo126r0c0v3.3.jpg	 r	 2.072	 GoodTrial	 3.3	 bl
9	 2	 1	 right	 LineStimuli//3.3/stimNo91r12c16v3.3.jpg	 l	 1.936	 GoodTrial	 3.3	 bl
10	 2	 1	 left	 LineStimuli//3.3/stimNo83r8c3v3.3.jpg	 l	 1.494	 GoodTrial	 3.3	 bl
11	 2	 1	 left	 LineStimuli//3.3/stimNo111r15c7v3.3.jpg	 l	 1.572	 GoodTrial	 3.3	 bl
12	 2	 1	 right	 LineStimuli//3.3/stimNo112r5c15v3.3.jpg	 l	 1.552	 GoodTrial	 3.3	 bl
13	 2	 0	 x	 LineStimuli//3.3/stimNo149r0c0v3.3.jpg	 r	 2.072	 GoodTrial	 3.3	 bl
14	 2	 0	 x	 LineStimuli//3.3/stimNo134r0c0v3.3.jpg	 r	 2.002	 GoodTrial	 3.3	 bl
15	 2	 0	 x	 LineStimuli//3.3/stimNo128r0c0v3.3.jpg	 r	 3.472	 GoodTrial	 3.3	 bl
16	 2	 0	 x	 LineStimuli//3.3/stimNo151r0c0v3.3.jpg	 r	 1.704	 GoodTrial	 3.3	 bl
17	 2	 1	 right	 LineStimuli//3.3/stimNo88r9c14v3.3.jpg	 l	 1.438	 GoodTrial	 3.3	 bl
18	 2	 0	 x	 LineStimuli//3.3/stimNo142r0c0v3.3.jpg	 r	 1.536	 GoodTrial	 3.3	 bl
19	 2	 0	 x	 LineStimuli//3.3/stimNo158r0c0v3.3.jpg	 r	 1.676	 GoodTrial	 3.3	 bl
20	 2	 1	 right	 LineStimuli//3.3/stimNo118r3c16v3.3.jpg	 l	 1.453	 GoodTrial	 3.3	 bl
21	 2	 1	 left	 LineStimuli//3.3/stimNo104r4c4v3.3.jpg	 l	 1.504	 GoodTrial	 3.3	 bl
22	 2	 1	 left	 LineStimuli//3.3/stimNo93r3c5v3.3.jpg	 l	 1.425	 GoodTrial	 3.3	 bl
23	 2	 0	 x	 LineStimuli//3.3/stimNo144r0c0v3.3.jpg	 r	 1.958	 GoodTrial	 3.3	 bl
24	 2	 0	 x	 LineStimuli//3.3/stimNo153r0c0v3.3.jpg	 r	 1.616	 GoodTrial	 3.3	 bl
25	 2	 0	 x	 LineStimuli//3.3/stimNo141r0c0v3.3.jpg	 r	 1.789	 GoodTrial	 3.3	 bl
26	 2	 0	 x	 LineStimuli//3.3/stimNo131r0c0v3.3.jpg	 r	 3.321	 GoodTrial	 3.3	 bl
27	 2	 0	 x	 LineStimuli//3.3/stimNo154r0c0v3.3.jpg	 r	 1.792	 GoodTrial	 3.3	 bl
28	 2	 0	 x	 LineStimuli//3.3/stimNo159r0c0v3.3.jpg	 r	 3.265	 GoodTrial	 3.3	 bl
29	 2	 1	 left	 LineStimuli//3.3/stimNo94r14c9v3.3.jpg	 l	 1.862	 GoodTrial	 3.3	 bl
30	 2	 0	 x	 LineStimuli//3.3/stimNo123r0c0v3.3.jpg	 r	 2.122	 GoodTrial	 3.3	 bl
31	 2	 1	 right	 LineStimuli//3.3/stimNo114r11c21v3.3.jpg	 l	 1.560	 GoodTrial	 3.3	 bl
32	 2	 1	 left	 LineStimuli//3.3/stimNo100r3c3v3.3.jpg	 l	 1.465	 GoodTrial	 3.3	 bl
33	 2	 1	 right	 LineStimuli//3.3/stimNo113r13c15v3.3.jpg	 l	 1.465	 GoodTrial	 3.3	 bl
34	 2	 1	 right	 LineStimuli//3.3/stimNo102r13c13v3.3.jpg	 l	 1.472	 GoodTrial	 3.3	 bl
35	 2	 0	 x	 LineStimuli//3.3/stimNo145r0c0v3.3.jpg	 r	 1.749	 GoodTrial	 3.3	 bl
36	 2	 0	 x	 LineStimuli//3.3/stimNo132r0c0v3.3.jpg	 r	 1.565	 GoodTrial	 3.3	 bl
37	 2	 1	 left	 LineStimuli//3.3/stimNo85r6c4v3.3.jpg	 l	 1.455	 GoodTrial	 3.3	 bl
38	 2	 1	 left	 LineStimuli//3.3/stimNo90r2c9v3.3.jpg	 l	 1.789	 GoodTrial	 3.3	 bl
39	 2	 1	 left	 LineStimuli//3.3/stimNo115r3c4v3.3.jpg	 l	 1.457	 GoodTrial	 3.3	 bl
40	 2	 1	 left	 LineStimuli//3.3/stimNo95r15c8v3.3.jpg	 l	 1.545	 GoodTrial	 3.3	 bl
41	 2	 0	 x	 LineStimuli//3.3/stimNo150r0c0v3.3.jpg	 r	 3.136	 GoodTrial	 3.3	 bl
42	 2	 0	 x	 LineStimuli//3.3/stimNo121r0c0v3.3.jpg	 r	 1.818	 GoodTrial	 3.3	 bl
43	 2	 0	 x	 LineStimuli//3.3/stimNo152r0c0v3.3.jpg	 r	 1.801	 GoodTrial	 3.3	 bl
44	 2	 0	 x	 LineStimuli//3.3/stimNo133r0c0v3.3.jpg	 r	 1.426	 GoodTrial	 3.3	 bl
45	 2	 1	 right	 LineStimuli//3.3/stimNo97r6c13v3.3.jpg	 l	 1.425	 GoodTrial	 3.3	 bl
46	 2	 0	 x	 LineStimuli//3.3/stimNo122r0c0v3.3.jpg	 r	 1.930	 GoodTrial	 3.3	 bl
47	 2	 0	 x	 LineStimuli//3.3/stimNo147r0c0v3.3.jpg	 r	 1.909	 GoodTrial	 3.3	 bl
48	 2	 0	 x	 LineStimuli//3.3/stimNo124r0c0v3.3.jpg	 r	 2.361	 GoodTrial	 3.3	 bl
49	 2	 0	 x	 LineStimuli//3.3/stimNo135r0c0v3.3.jpg	 r	 1.561	 GoodTrial	 3.3	 bl
50	 2	 1	 right	 LineStimuli//3.3/stimNo96r8c18v3.3.jpg	 l	 1.577	 GoodTrial	 3.3	 bl
1	 3	 1	 right	 LineStimuli//3.8/stimNo88r10c17v3.8.jpg	 l	 1.582	 GoodTrial	 3.8	 bl
2	 3	 0	 x	 LineStimuli//3.8/stimNo145r0c0v3.8.jpg	 r	 2.496	 GoodTrial	 3.8	 bl
3	 3	 1	 right	 LineStimuli//3.8/stimNo111r15c20v3.8.jpg	 l	 1.720	 GoodTrial	 3.8	 bl
4	 3	 0	 x	 LineStimuli//3.8/stimNo132r0c0v3.8.jpg	 r	 1.673	 GoodTrial	 3.8	 bl
5	 3	 0	 x	 LineStimuli//3.8/stimNo152r0c0v3.8.jpg	 r	 1.550	 GoodTrial	 3.8	 bl
6	 3	 0	 x	 LineStimuli//3.8/stimNo144r0c0v3.8.jpg	 r	 1.752	 GoodTrial	 3.8	 bl
7	 3	 1	 right	 LineStimuli//3.8/stimNo95r5c21v3.8.jpg	 l	 1.508	 GoodTrial	 3.8	 bl
8	 3	 1	 left	 LineStimuli//3.8/stimNo109r11c8v3.8.jpg	 l	 1.602	 GoodTrial	 3.8	 bl
9	 3	 0	 x	 LineStimuli//3.8/stimNo146r0c0v3.8.jpg	 r	 1.572	 GoodTrial	 3.8	 bl
10	 3	 1	 left	 LineStimuli//3.8/stimNo86r7c7v3.8.jpg	 l	 1.633	 GoodTrial	 3.8	 bl
11	 3	 0	 x	 LineStimuli//3.8/stimNo153r0c0v3.8.jpg	 r	 1.737	 GoodTrial	 3.8	 bl
12	 3	 0	 x	 LineStimuli//3.8/stimNo122r0c0v3.8.jpg	 r	 1.632	 GoodTrial	 3.8	 bl
13	 3	 1	 right	 LineStimuli//3.8/stimNo82r9c21v3.8.jpg	 l	 1.484	 GoodTrial	 3.8	 bl
14	 3	 0	 x	 LineStimuli//3.8/stimNo158r0c0v3.8.jpg	 r	 1.512	 GoodTrial	 3.8	 bl
15	 3	 0	 x	 LineStimuli//3.8/stimNo140r0c0v3.8.jpg	 r	 1.626	 GoodTrial	 3.8	 bl
16	 3	 1	 left	 LineStimuli//3.8/stimNo98r2c9v3.8.jpg	 r	 1.554	 GoodTrial	 3.8	 bl
17	 3	 0	 x	 LineStimuli//3.8/stimNo123r0c0v3.8.jpg	 r	 2.095	 GoodTrial	 3.8	 bl
18	 3	 0	 x	 LineStimuli//3.8/stimNo125r0c0v3.8.jpg	 r	 1.792	 GoodTrial	 3.8	 bl
19	 3	 1	 left	 LineStimuli//3.8/stimNo116r7c3v3.8.jpg	 l	 1.489	 GoodTrial	 3.8	 bl
20	 3	 1	 left	 LineStimuli//3.8/stimNo115r14c10v3.8.jpg	 l	 1.878	 GoodTrial	 3.8	 bl
21	 3	 0	 x	 LineStimuli//3.8/stimNo139r0c0v3.8.jpg	 r	 2.663	 GoodTrial	 3.8	 bl
22	 3	 1	 left	 LineStimuli//3.8/stimNo105r2c6v3.8.jpg	 l	 1.503	 GoodTrial	 3.8	 bl
23	 3	 0	 x	 LineStimuli//3.8/stimNo150r0c0v3.8.jpg	 r	 2.219	 GoodTrial	 3.8	 bl
24	 3	 1	 right	 LineStimuli//3.8/stimNo101r12c17v3.8.jpg	 l	 1.471	 GoodTrial	 3.8	 bl
25	 3	 0	 x	 LineStimuli//3.8/stimNo136r0c0v3.8.jpg	 r	 1.923	 GoodTrial	 3.8	 bl
26	 3	 1	 right	 LineStimuli//3.8/stimNo112r12c16v3.8.jpg	 l	 1.441	 GoodTrial	 3.8	 bl
27	 3	 1	 right	 LineStimuli//3.8/stimNo84r9c19v3.8.jpg	 l	 1.525	 GoodTrial	 3.8	 bl
28	 3	 0	 x	 LineStimuli//3.8/stimNo124r0c0v3.8.jpg	 r	 1.715	 GoodTrial	 3.8	 bl
29	 3	 1	 left	 LineStimuli//3.8/stimNo110r7c9v3.8.jpg	 l	 1.480	 GoodTrial	 3.8	 bl
30	 3	 0	 x	 LineStimuli//3.8/stimNo129r0c0v3.8.jpg	 r	 1.805	 GoodTrial	 3.8	 bl
31	 3	 1	 right	 LineStimuli//3.8/stimNo107r9c18v3.8.jpg	 l	 1.481	 GoodTrial	 3.8	 bl
32	 3	 0	 x	 LineStimuli//3.8/stimNo130r0c0v3.8.jpg	 r	 1.689	 GoodTrial	 3.8	 bl
33	 3	 1	 right	 LineStimuli//3.8/stimNo90r8c17v3.8.jpg	 l	 1.465	 GoodTrial	 3.8	 bl
34	 3	 0	 x	 LineStimuli//3.8/stimNo135r0c0v3.8.jpg	 r	 1.739	 GoodTrial	 3.8	 bl
35	 3	 1	 right	 LineStimuli//3.8/stimNo85r3c13v3.8.jpg	 l	 1.527	 GoodTrial	 3.8	 bl
36	 3	 1	 left	 LineStimuli//3.8/stimNo120r5c3v3.8.jpg	 l	 1.447	 GoodTrial	 3.8	 bl
37	 3	 0	 x	 LineStimuli//3.8/stimNo154r0c0v3.8.jpg	 r	 1.569	 GoodTrial	 3.8	 bl
38	 3	 1	 right	 LineStimuli//3.8/stimNo94r6c17v3.8.jpg	 l	 1.550	 GoodTrial	 3.8	 bl
39	 3	 0	 x	 LineStimuli//3.8/stimNo128r0c0v3.8.jpg	 r	 1.527	 GoodTrial	 3.8	 bl
40	 3	 0	 x	 LineStimuli//3.8/stimNo149r0c0v3.8.jpg	 r	 2.348	 GoodTrial	 3.8	 bl
41	 3	 1	 right	 LineStimuli//3.8/stimNo102r10c17v3.8.jpg	 l	 1.414	 GoodTrial	 3.8	 bl
42	 3	 0	 x	 LineStimuli//3.8/stimNo142r0c0v3.8.jpg	 r	 1.842	 GoodTrial	 3.8	 bl
43	 3	 1	 right	 LineStimuli//3.8/stimNo96r2c13v3.8.jpg	 l	 1.441	 GoodTrial	 3.8	 bl
44	 3	 0	 x	 LineStimuli//3.8/stimNo147r0c0v3.8.jpg	 r	 1.552	 GoodTrial	 3.8	 bl
45	 3	 1	 left	 LineStimuli//3.8/stimNo100r13c6v3.8.jpg	 l	 1.473	 GoodTrial	 3.8	 bl
46	 3	 0	 x	 LineStimuli//3.8/stimNo156r0c0v3.8.jpg	 r	 1.984	 GoodTrial	 3.8	 bl
47	 3	 0	 x	 LineStimuli//3.8/stimNo131r0c0v3.8.jpg	 l	 2.127	 GoodTrial	 3.8	 bl
48	 3	 0	 x	 LineStimuli//3.8/stimNo148r0c0v3.8.jpg	 r	 1.712	 GoodTrial	 3.8	 bl
49	 3	 0	 x	 LineStimuli//3.8/stimNo143r0c0v3.8.jpg	 r	 1.513	 GoodTrial	 3.8	 bl
50	 3	 0	 x	 LineStimuli//3.8/stimNo127r0c0v3.8.jpg	 r	 1.449	 GoodTrial	 3.8	 bl
1	 4	 1	 left	 LineStimuli//2.8/stimNo88r15c3v2.8.jpg	 l	 1.805	 GoodTrial	 2.8	 bl
2	 4	 0	 x	 LineStimuli//2.8/stimNo132r0c0v2.8.jpg	 r	 2.414	 GoodTrial	 2.8	 bl
3	 4	 1	 left	 LineStimuli//2.8/stimNo87r11c8v2.8.jpg	 l	 1.556	 GoodTrial	 2.8	 bl
4	 4	 1	 right	 LineStimuli//2.8/stimNo92r14c21v2.8.jpg	 l	 2.759	 GoodTrial	 2.8	 bl
5	 4	 0	 x	 LineStimuli//2.8/stimNo125r0c0v2.8.jpg	 r	 2.544	 GoodTrial	 2.8	 bl
6	 4	 1	 left	 LineStimuli//2.8/stimNo84r3c9v2.8.jpg	 l	 1.700	 GoodTrial	 2.8	 bl
7	 4	 1	 right	 LineStimuli//2.8/stimNo114r8c19v2.8.jpg	 l	 1.836	 GoodTrial	 2.8	 bl
8	 4	 0	 x	 LineStimuli//2.8/stimNo154r0c0v2.8.jpg	 r	 1.823	 GoodTrial	 2.8	 bl
9	 4	 1	 right	 LineStimuli//2.8/stimNo115r9c14v2.8.jpg	 l	 1.527	 GoodTrial	 2.8	 bl
10	 4	 1	 right	 LineStimuli//2.8/stimNo93r9c20v2.8.jpg	 l	 1.609	 GoodTrial	 2.8	 bl
11	 4	 0	 x	 LineStimuli//2.8/stimNo159r0c0v2.8.jpg	 r	 1.807	 GoodTrial	 2.8	 bl
12	 4	 0	 x	 LineStimuli//2.8/stimNo134r0c0v2.8.jpg	 r	 2.492	 GoodTrial	 2.8	 bl
13	 4	 0	 x	 LineStimuli//2.8/stimNo127r0c0v2.8.jpg	 r	 2.442	 GoodTrial	 2.8	 bl
14	 4	 0	 x	 LineStimuli//2.8/stimNo151r0c0v2.8.jpg	 r	 2.201	 GoodTrial	 2.8	 bl
15	 4	 1	 right	 LineStimuli//2.8/stimNo103r3c19v2.8.jpg	 l	 1.711	 GoodTrial	 2.8	 bl
16	 4	 1	 right	 LineStimuli//2.8/stimNo117r11c17v2.8.jpg	 l	 1.649	 GoodTrial	 2.8	 bl
17	 4	 1	 right	 LineStimuli//2.8/stimNo90r13c21v2.8.jpg	 l	 1.737	 GoodTrial	 2.8	 bl
18	 4	 1	 right	 LineStimuli//2.8/stimNo95r9c18v2.8.jpg	 l	 1.484	 GoodTrial	 2.8	 bl
19	 4	 1	 right	 LineStimuli//2.8/stimNo85r4c15v2.8.jpg	 l	 1.535	 GoodTrial	 2.8	 bl
20	 4	 1	 left	 LineStimuli//2.8/stimNo96r6c9v2.8.jpg	 l	 1.469	 GoodTrial	 2.8	 bl
21	 4	 0	 x	 LineStimuli//2.8/stimNo147r0c0v2.8.jpg	 r	 1.907	 GoodTrial	 2.8	 bl
22	 4	 1	 right	 LineStimuli//2.8/stimNo111r9c15v2.8.jpg	 l	 1.489	 GoodTrial	 2.8	 bl
23	 4	 0	 x	 LineStimuli//2.8/stimNo156r0c0v2.8.jpg	 r	 1.783	 GoodTrial	 2.8	 bl
24	 4	 0	 x	 LineStimuli//2.8/stimNo148r0c0v2.8.jpg	 r	 2.315	 GoodTrial	 2.8	 bl
25	 4	 1	 right	 LineStimuli//2.8/stimNo112r13c17v2.8.jpg	 l	 2.234	 GoodTrial	 2.8	 bl
26	 4	 1	 right	 LineStimuli//2.8/stimNo106r13c20v2.8.jpg	 l	 1.712	 GoodTrial	 2.8	 bl
27	 4	 1	 left	 LineStimuli//2.8/stimNo98r15c2v2.8.jpg	 l	 1.703	 GoodTrial	 2.8	 bl
28	 4	 0	 x	 LineStimuli//2.8/stimNo129r0c0v2.8.jpg	 r	 2.141	 GoodTrial	 2.8	 bl
29	 4	 0	 x	 LineStimuli//2.8/stimNo142r0c0v2.8.jpg	 r	 2.575	 GoodTrial	 2.8	 bl
30	 4	 0	 x	 LineStimuli//2.8/stimNo124r0c0v2.8.jpg	 r	 2.777	 GoodTrial	 2.8	 bl
31	 4	 0	 x	 LineStimuli//2.8/stimNo121r0c0v2.8.jpg	 r	 3.027	 GoodTrial	 2.8	 bl
32	 4	 0	 x	 LineStimuli//2.8/stimNo137r0c0v2.8.jpg	 r	 3.004	 GoodTrial	 2.8	 bl
33	 4	 1	 left	 LineStimuli//2.8/stimNo113r9c5v2.8.jpg	 l	 1.536	 GoodTrial	 2.8	 bl
34	 4	 0	 x	 LineStimuli//2.8/stimNo160r0c0v2.8.jpg	 r	 2.048	 GoodTrial	 2.8	 bl
35	 4	 1	 left	 LineStimuli//2.8/stimNo97r11c4v2.8.jpg	 l	 1.578	 GoodTrial	 2.8	 bl
36	 4	 1	 left	 LineStimuli//2.8/stimNo91r2c3v2.8.jpg	 l	 1.817	 GoodTrial	 2.8	 bl
37	 4	 1	 left	 LineStimuli//2.8/stimNo116r4c7v2.8.jpg	 l	 1.624	 GoodTrial	 2.8	 bl
38	 4	 1	 left	 LineStimuli//2.8/stimNo107r5c6v2.8.jpg	 l	 1.490	 GoodTrial	 2.8	 bl
39	 4	 1	 left	 LineStimuli//2.8/stimNo89r12c4v2.8.jpg	 l	 1.496	 GoodTrial	 2.8	 bl
40	 4	 0	 x	 LineStimuli//2.8/stimNo145r0c0v2.8.jpg	 r	 2.367	 GoodTrial	 2.8	 bl
41	 4	 1	 right	 LineStimuli//2.8/stimNo101r12c16v2.8.jpg	 l	 1.529	 GoodTrial	 2.8	 bl
42	 4	 0	 x	 LineStimuli//2.8/stimNo141r0c0v2.8.jpg	 r	 2.105	 GoodTrial	 2.8	 bl
43	 4	 0	 x	 LineStimuli//2.8/stimNo146r0c0v2.8.jpg	 r	 1.752	 GoodTrial	 2.8	 bl
44	 4	 0	 x	 LineStimuli//2.8/stimNo138r0c0v2.8.jpg	 r	 1.760	 GoodTrial	 2.8	 bl
45	 4	 0	 x	 LineStimuli//2.8/stimNo123r0c0v2.8.jpg	 r	 1.920	 GoodTrial	 2.8	 bl
46	 4	 0	 x	 LineStimuli//2.8/stimNo150r0c0v2.8.jpg	 r	 2.336	 GoodTrial	 2.8	 bl
47	 4	 1	 right	 LineStimuli//2.8/stimNo110r7c14v2.8.jpg	 l	 1.542	 GoodTrial	 2.8	 bl
48	 4	 1	 right	 LineStimuli//2.8/stimNo120r8c20v2.8.jpg	 l	 1.496	 GoodTrial	 2.8	 bl
49	 4	 1	 left	 LineStimuli//2.8/stimNo82r4c6v2.8.jpg	 l	 1.448	 GoodTrial	 2.8	 bl
50	 4	 0	 x	 LineStimuli//2.8/stimNo140r0c0v2.8.jpg	 r	 2.220	 GoodTrial	 2.8	 bl
1	 5	 1	 right	 LineStimuli//4.3/stimNo89r3c17v4.3.jpg	 l	 1.717	 GoodTrial	 4.3	 bl
2	 5	 1	 right	 LineStimuli//4.3/stimNo115r10c18v4.3.jpg	 l	 1.457	 GoodTrial	 4.3	 bl
3	 5	 1	 left	 LineStimuli//4.3/stimNo103r10c4v4.3.jpg	 l	 1.405	 GoodTrial	 4.3	 bl
4	 5	 0	 x	 LineStimuli//4.3/stimNo126r0c0v4.3.jpg	 r	 1.605	 GoodTrial	 4.3	 bl
5	 5	 0	 x	 LineStimuli//4.3/stimNo132r0c0v4.3.jpg	 r	 1.413	 GoodTrial	 4.3	 bl
6	 5	 0	 x	 LineStimuli//4.3/stimNo152r0c0v4.3.jpg	 r	 1.613	 GoodTrial	 4.3	 bl
7	 5	 1	 left	 LineStimuli//4.3/stimNo83r4c2v4.3.jpg	 l	 1.526	 GoodTrial	 4.3	 bl
8	 5	 1	 left	 LineStimuli//4.3/stimNo101r5c5v4.3.jpg	 l	 1.524	 GoodTrial	 4.3	 bl
9	 5	 0	 x	 LineStimuli//4.3/stimNo142r0c0v4.3.jpg	 r	 1.568	 GoodTrial	 4.3	 bl
10	 5	 0	 x	 LineStimuli//4.3/stimNo130r0c0v4.3.jpg	 r	 1.808	 GoodTrial	 4.3	 bl
11	 5	 0	 x	 LineStimuli//4.3/stimNo157r0c0v4.3.jpg	 r	 1.462	 GoodTrial	 4.3	 bl
12	 5	 0	 x	 LineStimuli//4.3/stimNo141r0c0v4.3.jpg	 r	 1.482	 GoodTrial	 4.3	 bl
13	 5	 0	 x	 LineStimuli//4.3/stimNo153r0c0v4.3.jpg	 r	 1.565	 GoodTrial	 4.3	 bl
14	 5	 1	 left	 LineStimuli//4.3/stimNo88r10c3v4.3.jpg	 l	 1.530	 GoodTrial	 4.3	 bl
15	 5	 0	 x	 LineStimuli//4.3/stimNo160r0c0v4.3.jpg	 r	 1.481	 GoodTrial	 4.3	 bl
16	 5	 1	 right	 LineStimuli//4.3/stimNo117r10c21v4.3.jpg	 l	 1.507	 GoodTrial	 4.3	 bl
17	 5	 1	 right	 LineStimuli//4.3/stimNo112r10c16v4.3.jpg	 l	 1.453	 GoodTrial	 4.3	 bl
18	 5	 0	 x	 LineStimuli//4.3/stimNo158r0c0v4.3.jpg	 r	 1.673	 GoodTrial	 4.3	 bl
19	 5	 1	 left	 LineStimuli//4.3/stimNo86r7c3v4.3.jpg	 l	 1.455	 GoodTrial	 4.3	 bl
20	 5	 0	 x	 LineStimuli//4.3/stimNo147r0c0v4.3.jpg	 r	 1.537	 GoodTrial	 4.3	 bl
21	 5	 0	 x	 LineStimuli//4.3/stimNo156r0c0v4.3.jpg	 r	 1.587	 GoodTrial	 4.3	 bl
22	 5	 1	 right	 LineStimuli//4.3/stimNo99r14c18v4.3.jpg	 l	 1.679	 GoodTrial	 4.3	 bl
23	 5	 1	 right	 LineStimuli//4.3/stimNo118r11c13v4.3.jpg	 l	 1.830	 GoodTrial	 4.3	 bl
24	 5	 1	 right	 LineStimuli//4.3/stimNo97r6c21v4.3.jpg	 l	 1.506	 GoodTrial	 4.3	 bl
25	 5	 0	 x	 LineStimuli//4.3/stimNo145r0c0v4.3.jpg	 r	 1.968	 GoodTrial	 4.3	 bl
26	 5	 0	 x	 LineStimuli//4.3/stimNo159r0c0v4.3.jpg	 r	 2.558	 GoodTrial	 4.3	 bl
27	 5	 0	 x	 LineStimuli//4.3/stimNo123r0c0v4.3.jpg	 r	 2.133	 GoodTrial	 4.3	 bl
28	 5	 0	 x	 LineStimuli//4.3/stimNo139r0c0v4.3.jpg	 r	 1.485	 GoodTrial	 4.3	 bl
29	 5	 0	 x	 LineStimuli//4.3/stimNo150r0c0v4.3.jpg	 r	 1.477	 GoodTrial	 4.3	 bl
30	 5	 0	 x	 LineStimuli//4.3/stimNo133r0c0v4.3.jpg	 r	 1.555	 GoodTrial	 4.3	 bl
31	 5	 1	 left	 LineStimuli//4.3/stimNo111r10c9v4.3.jpg	 l	 1.545	 GoodTrial	 4.3	 bl
32	 5	 1	 left	 LineStimuli//4.3/stimNo100r8c3v4.3.jpg	 l	 1.487	 GoodTrial	 4.3	 bl
33	 5	 1	 right	 LineStimuli//4.3/stimNo94r12c13v4.3.jpg	 l	 1.693	 GoodTrial	 4.3	 bl
34	 5	 0	 x	 LineStimuli//4.3/stimNo137r0c0v4.3.jpg	 r	 1.743	 GoodTrial	 4.3	 bl
35	 5	 0	 x	 LineStimuli//4.3/stimNo140r0c0v4.3.jpg	 r	 1.635	 GoodTrial	 4.3	 bl
36	 5	 1	 left	 LineStimuli//4.3/stimNo104r15c2v4.3.jpg	 l	 1.677	 GoodTrial	 4.3	 bl
37	 5	 1	 left	 LineStimuli//4.3/stimNo105r14c6v4.3.jpg	 l	 1.559	 GoodTrial	 4.3	 bl
38	 5	 0	 x	 LineStimuli//4.3/stimNo125r0c0v4.3.jpg	 r	 1.623	 GoodTrial	 4.3	 bl
39	 5	 1	 left	 LineStimuli//4.3/stimNo87r3c5v4.3.jpg	 l	 1.545	 GoodTrial	 4.3	 bl
40	 5	 1	 left	 LineStimuli//4.3/stimNo106r8c2v4.3.jpg	 l	 2.000	 GoodTrial	 4.3	 bl
41	 5	 1	 right	 LineStimuli//4.3/stimNo81r10c14v4.3.jpg	 l	 1.508	 GoodTrial	 4.3	 bl
42	 5	 0	 x	 LineStimuli//4.3/stimNo136r0c0v4.3.jpg	 r	 1.746	 GoodTrial	 4.3	 bl
43	 5	 1	 right	 LineStimuli//4.3/stimNo91r9c13v4.3.jpg	 l	 1.544	 GoodTrial	 4.3	 bl
44	 5	 1	 right	 LineStimuli//4.3/stimNo120r8c18v4.3.jpg	 l	 1.511	 GoodTrial	 4.3	 bl
45	 5	 0	 x	 LineStimuli//4.3/stimNo151r0c0v4.3.jpg	 r	 1.623	 GoodTrial	 4.3	 bl
46	 5	 0	 x	 LineStimuli//4.3/stimNo144r0c0v4.3.jpg	 r	 1.587	 GoodTrial	 4.3	 bl
47	 5	 1	 left	 LineStimuli//4.3/stimNo110r6c7v4.3.jpg	 l	 1.495	 GoodTrial	 4.3	 bl
48	 5	 0	 x	 LineStimuli//4.3/stimNo155r0c0v4.3.jpg	 r	 1.508	 GoodTrial	 4.3	 bl
49	 5	 0	 x	 LineStimuli//4.3/stimNo122r0c0v4.3.jpg	 r	 1.482	 GoodTrial	 4.3	 bl
50	 5	 1	 right	 LineStimuli//4.3/stimNo119r12c17v4.3.jpg	 l	 1.592	 GoodTrial	 4.3	 bl
1	 6	 0	 x	 LineStimuli//1.5/stimNo147r0c0v1.5.jpg	 r	 4.368	 GoodTrial	 1.5	 bl
2	 6	 0	 x	 LineStimuli//1.5/stimNo160r0c0v1.5.jpg	 r	 3.880	 GoodTrial	 1.5	 bl
3	 6	 1	 right	 LineStimuli//1.5/stimNo84r3c18v1.5.jpg	 l	 5.411	 GoodTrial	 1.5	 bl
4	 6	 0	 x	 LineStimuli//1.5/stimNo123r0c0v1.5.jpg	 r	 6.195	 GoodTrial	 1.5	 bl
5	 6	 0	 x	 LineStimuli//1.5/stimNo157r0c0v1.5.jpg	 r	 8.188	 GoodTrial	 1.5	 bl
6	 6	 0	 x	 LineStimuli//1.5/stimNo121r0c0v1.5.jpg	 r	 6.810	 GoodTrial	 1.5	 bl
7	 6	 1	 left	 LineStimuli//1.5/stimNo102r7c6v1.5.jpg	 r	 12.480	 GoodTrial	 1.5	 bl
8	 6	 1	 right	 LineStimuli//1.5/stimNo82r11c15v1.5.jpg	 r	 8.488	 GoodTrial	 1.5	 bl
9	 6	 1	 left	 LineStimuli//1.5/stimNo94r10c6v1.5.jpg	 l	 2.176	 GoodTrial	 1.5	 bl
10	 6	 1	 right	 LineStimuli//1.5/stimNo103r13c17v1.5.jpg	 l	 5.889	 GoodTrial	 1.5	 bl
11	 6	 1	 right	 LineStimuli//1.5/stimNo115r14c18v1.5.jpg	 l	 2.423	 GoodTrial	 1.5	 bl
12	 6	 0	 x	 LineStimuli//1.5/stimNo158r0c0v1.5.jpg	 r	 7.884	 GoodTrial	 1.5	 bl
13	 6	 0	 x	 LineStimuli//1.5/stimNo153r0c0v1.5.jpg	 r	 7.328	 GoodTrial	 1.5	 bl
14	 6	 0	 x	 LineStimuli//1.5/stimNo149r0c0v1.5.jpg	 x	 1.425	 GoodTrial	 1.5	 bl
15	 6	 1	 right	 LineStimuli//1.5/stimNo90r3c15v1.5.jpg	 r	 5.204	 GoodTrial	 1.5	 bl
16	 6	 0	 x	 LineStimuli//1.5/stimNo127r0c0v1.5.jpg	 r	 6.718	 GoodTrial	 1.5	 bl
17	 6	 0	 x	 LineStimuli//1.5/stimNo137r0c0v1.5.jpg	 r	 2.536	 GoodTrial	 1.5	 bl
18	 6	 0	 x	 LineStimuli//1.5/stimNo152r0c0v1.5.jpg	 r	 3.599	 GoodTrial	 1.5	 bl
19	 6	 1	 right	 LineStimuli//1.5/stimNo92r6c18v1.5.jpg	 r	 2.074	 GoodTrial	 1.5	 bl
20	 6	 0	 x	 LineStimuli//1.5/stimNo134r0c0v1.5.jpg	 r	 6.559	 GoodTrial	 1.5	 bl
21	 6	 0	 x	 LineStimuli//1.5/stimNo156r0c0v1.5.jpg	 r	 2.657	 GoodTrial	 1.5	 bl
22	 6	 1	 right	 LineStimuli//1.5/stimNo105r3c18v1.5.jpg	 r	 2.714	 GoodTrial	 1.5	 bl
23	 6	 0	 x	 LineStimuli//1.5/stimNo124r0c0v1.5.jpg	 r	 4.378	 GoodTrial	 1.5	 bl
24	 6	 0	 x	 LineStimuli//1.5/stimNo154r0c0v1.5.jpg	 r	 5.768	 GoodTrial	 1.5	 bl
25	 6	 0	 x	 LineStimuli//1.5/stimNo151r0c0v1.5.jpg	 r	 6.411	 GoodTrial	 1.5	 bl
26	 6	 1	 right	 LineStimuli//1.5/stimNo98r8c21v1.5.jpg	 r	 3.560	 GoodTrial	 1.5	 bl
27	 6	 1	 right	 LineStimuli//1.5/stimNo107r2c19v1.5.jpg	 x	 8.081	 GoodTrial	 1.5	 bl
28	 6	 1	 left	 LineStimuli//1.5/stimNo85r2c5v1.5.jpg	 r	 11.968	 GoodTrial	 1.5	 bl
29	 6	 0	 x	 LineStimuli//1.5/stimNo132r0c0v1.5.jpg	 r	 7.665	 GoodTrial	 1.5	 bl
30	 6	 0	 x	 LineStimuli//1.5/stimNo128r0c0v1.5.jpg	 r	 8.899	 GoodTrial	 1.5	 bl
31	 6	 1	 left	 LineStimuli//1.5/stimNo113r4c4v1.5.jpg	 r	 8.675	 GoodTrial	 1.5	 bl
32	 6	 1	 left	 LineStimuli//1.5/stimNo106r3c7v1.5.jpg	 r	 4.814	 GoodTrial	 1.5	 bl
33	 6	 1	 left	 LineStimuli//1.5/stimNo89r8c9v1.5.jpg	 r	 9.914	 GoodTrial	 1.5	 bl
34	 6	 1	 right	 LineStimuli//1.5/stimNo108r13c15v1.5.jpg	 x	 3.914	 GoodTrial	 1.5	 bl
35	 6	 1	 left	 LineStimuli//1.5/stimNo112r9c5v1.5.jpg	 l	 1.999	 GoodTrial	 1.5	 bl
36	 6	 0	 x	 LineStimuli//1.5/stimNo150r0c0v1.5.jpg	 r	 4.836	 GoodTrial	 1.5	 bl
37	 6	 0	 x	 LineStimuli//1.5/stimNo142r0c0v1.5.jpg	 r	 3.227	 GoodTrial	 1.5	 bl
38	 6	 1	 left	 LineStimuli//1.5/stimNo91r9c3v1.5.jpg	 r	 2.811	 GoodTrial	 1.5	 bl
39	 6	 1	 left	 LineStimuli//1.5/stimNo120r14c2v1.5.jpg	 l	 2.271	 GoodTrial	 1.5	 bl
40	 6	 1	 left	 LineStimuli//1.5/stimNo83r12c7v1.5.jpg	 x	 2.928	 GoodTrial	 1.5	 bl
41	 6	 0	 x	 LineStimuli//1.5/stimNo133r0c0v1.5.jpg	 r	 6.848	 GoodTrial	 1.5	 bl
42	 6	 1	 right	 LineStimuli//1.5/stimNo118r9c20v1.5.jpg	 l	 2.011	 GoodTrial	 1.5	 bl
43	 6	 0	 x	 LineStimuli//1.5/stimNo146r0c0v1.5.jpg	 r	 2.516	 GoodTrial	 1.5	 bl
44	 6	 0	 x	 LineStimuli//1.5/stimNo155r0c0v1.5.jpg	 l	 1.640	 GoodTrial	 1.5	 bl
45	 6	 0	 x	 LineStimuli//1.5/stimNo148r0c0v1.5.jpg	 r	 3.840	 GoodTrial	 1.5	 bl
46	 6	 1	 left	 LineStimuli//1.5/stimNo96r15c4v1.5.jpg	 l	 2.698	 GoodTrial	 1.5	 bl
47	 6	 0	 x	 LineStimuli//1.5/stimNo125r0c0v1.5.jpg	 r	 4.287	 GoodTrial	 1.5	 bl
48	 6	 1	 left	 LineStimuli//1.5/stimNo110r7c3v1.5.jpg	 l	 3.901	 GoodTrial	 1.5	 bl
49	 6	 1	 right	 LineStimuli//1.5/stimNo100r6c20v1.5.jpg	 l	 2.737	 GoodTrial	 1.5	 bl
50	 6	 1	 right	 LineStimuli//1.5/stimNo119r6c19v1.5.jpg	 l	 3.356	 GoodTrial	 1.5	 bl
1	 7	 1	 right	 LineStimuli//1.8/stimNo99r12c16v1.8.jpg	 r	 4.144	 GoodTrial	 1.8	 bl
2	 7	 1	 right	 LineStimuli//1.8/stimNo90r15c13v1.8.jpg	 r	 6.880	 GoodTrial	 1.8	 bl
3	 7	 1	 right	 LineStimuli//1.8/stimNo101r4c13v1.8.jpg	 l	 3.823	 GoodTrial	 1.8	 bl
4	 7	 1	 right	 LineStimuli//1.8/stimNo108r9c21v1.8.jpg	 r	 3.345	 GoodTrial	 1.8	 bl
5	 7	 0	 x	 LineStimuli//1.8/stimNo126r0c0v1.8.jpg	 x	 4.709	 GoodTrial	 1.8	 bl
6	 7	 0	 x	 LineStimuli//1.8/stimNo159r0c0v1.8.jpg	 r	 5.916	 GoodTrial	 1.8	 bl
7	 7	 1	 right	 LineStimuli//1.8/stimNo83r6c13v1.8.jpg	 l	 1.930	 GoodTrial	 1.8	 bl
8	 7	 0	 x	 LineStimuli//1.8/stimNo136r0c0v1.8.jpg	 r	 4.331	 GoodTrial	 1.8	 bl
9	 7	 0	 x	 LineStimuli//1.8/stimNo151r0c0v1.8.jpg	 r	 3.259	 GoodTrial	 1.8	 bl
10	 7	 1	 right	 LineStimuli//1.8/stimNo82r7c18v1.8.jpg	 l	 1.848	 GoodTrial	 1.8	 bl
11	 7	 0	 x	 LineStimuli//1.8/stimNo145r0c0v1.8.jpg	 r	 2.180	 GoodTrial	 1.8	 bl
12	 7	 1	 left	 LineStimuli//1.8/stimNo120r14c9v1.8.jpg	 r	 5.122	 GoodTrial	 1.8	 bl
13	 7	 1	 left	 LineStimuli//1.8/stimNo91r14c4v1.8.jpg	 l	 2.239	 GoodTrial	 1.8	 bl
14	 7	 1	 left	 LineStimuli//1.8/stimNo88r15c9v1.8.jpg	 x	 1.470	 GoodTrial	 1.8	 bl
15	 7	 0	 x	 LineStimuli//1.8/stimNo129r0c0v1.8.jpg	 r	 2.536	 GoodTrial	 1.8	 bl
16	 7	 0	 x	 LineStimuli//1.8/stimNo146r0c0v1.8.jpg	 r	 7.195	 GoodTrial	 1.8	 bl
17	 7	 1	 right	 LineStimuli//1.8/stimNo84r11c21v1.8.jpg	 l	 3.651	 GoodTrial	 1.8	 bl
18	 7	 1	 left	 LineStimuli//1.8/stimNo98r15c5v1.8.jpg	 l	 1.931	 GoodTrial	 1.8	 bl
19	 7	 1	 right	 LineStimuli//1.8/stimNo104r3c21v1.8.jpg	 l	 2.492	 GoodTrial	 1.8	 bl
20	 7	 1	 right	 LineStimuli//1.8/stimNo97r15c18v1.8.jpg	 l	 1.734	 GoodTrial	 1.8	 bl
21	 7	 0	 x	 LineStimuli//1.8/stimNo140r0c0v1.8.jpg	 r	 2.355	 GoodTrial	 1.8	 bl
22	 7	 0	 x	 LineStimuli//1.8/stimNo141r0c0v1.8.jpg	 r	 3.102	 GoodTrial	 1.8	 bl
23	 7	 1	 left	 LineStimuli//1.8/stimNo103r15c10v1.8.jpg	 r	 3.940	 GoodTrial	 1.8	 bl
24	 7	 1	 right	 LineStimuli//1.8/stimNo93r3c17v1.8.jpg	 l	 3.680	 GoodTrial	 1.8	 bl
25	 7	 1	 left	 LineStimuli//1.8/stimNo86r14c4v1.8.jpg	 l	 2.146	 GoodTrial	 1.8	 bl
26	 7	 0	 x	 LineStimuli//1.8/stimNo153r0c0v1.8.jpg	 r	 2.904	 GoodTrial	 1.8	 bl
27	 7	 0	 x	 LineStimuli//1.8/stimNo121r0c0v1.8.jpg	 r	 1.912	 GoodTrial	 1.8	 bl
28	 7	 1	 right	 LineStimuli//1.8/stimNo109r7c17v1.8.jpg	 l	 2.563	 GoodTrial	 1.8	 bl
29	 7	 1	 left	 LineStimuli//1.8/stimNo89r11c6v1.8.jpg	 r	 7.442	 GoodTrial	 1.8	 bl
30	 7	 0	 x	 LineStimuli//1.8/stimNo132r0c0v1.8.jpg	 r	 4.552	 GoodTrial	 1.8	 bl
31	 7	 0	 x	 LineStimuli//1.8/stimNo130r0c0v1.8.jpg	 r	 5.954	 GoodTrial	 1.8	 bl
32	 7	 1	 left	 LineStimuli//1.8/stimNo95r4c9v1.8.jpg	 l	 3.644	 GoodTrial	 1.8	 bl
33	 7	 0	 x	 LineStimuli//1.8/stimNo142r0c0v1.8.jpg	 r	 2.944	 GoodTrial	 1.8	 bl
34	 7	 1	 right	 LineStimuli//1.8/stimNo100r9c13v1.8.jpg	 l	 2.177	 GoodTrial	 1.8	 bl
35	 7	 0	 x	 LineStimuli//1.8/stimNo124r0c0v1.8.jpg	 r	 4.438	 GoodTrial	 1.8	 bl
36	 7	 0	 x	 LineStimuli//1.8/stimNo131r0c0v1.8.jpg	 r	 6.706	 GoodTrial	 1.8	 bl
37	 7	 1	 right	 LineStimuli//1.8/stimNo102r14c17v1.8.jpg	 l	 1.768	 GoodTrial	 1.8	 bl
38	 7	 0	 x	 LineStimuli//1.8/stimNo137r0c0v1.8.jpg	 r	 1.857	 GoodTrial	 1.8	 bl
39	 7	 1	 left	 LineStimuli//1.8/stimNo113r6c7v1.8.jpg	 l	 1.592	 GoodTrial	 1.8	 bl
40	 7	 1	 right	 LineStimuli//1.8/stimNo111r4c21v1.8.jpg	 l	 1.648	 GoodTrial	 1.8	 bl
41	 7	 1	 left	 LineStimuli//1.8/stimNo94r13c8v1.8.jpg	 r	 2.201	 GoodTrial	 1.8	 bl
42	 7	 1	 left	 LineStimuli//1.8/stimNo106r13c9v1.8.jpg	 l	 2.067	 GoodTrial	 1.8	 bl
43	 7	 0	 x	 LineStimuli//1.8/stimNo157r0c0v1.8.jpg	 r	 2.132	 GoodTrial	 1.8	 bl
44	 7	 0	 x	 LineStimuli//1.8/stimNo149r0c0v1.8.jpg	 r	 2.835	 GoodTrial	 1.8	 bl
45	 7	 0	 x	 LineStimuli//1.8/stimNo135r0c0v1.8.jpg	 r	 2.195	 GoodTrial	 1.8	 bl
46	 7	 1	 left	 LineStimuli//1.8/stimNo115r5c9v1.8.jpg	 r	 2.487	 GoodTrial	 1.8	 bl
47	 7	 0	 x	 LineStimuli//1.8/stimNo133r0c0v1.8.jpg	 r	 4.084	 GoodTrial	 1.8	 bl
48	 7	 0	 x	 LineStimuli//1.8/stimNo156r0c0v1.8.jpg	 r	 1.734	 GoodTrial	 1.8	 bl
49	 7	 1	 left	 LineStimuli//1.8/stimNo85r13c2v1.8.jpg	 l	 1.885	 GoodTrial	 1.8	 bl
50	 7	 1	 left	 LineStimuli//1.8/stimNo81r6c8v1.8.jpg	 l	 1.654	 GoodTrial	 1.8	 bl
