Trial	Block	Target_pr	Target_side	Name	Key	RT	Message	Block_Type	Condition
1	 1	 1	 right	 LineStimuli//1.8/stimNo101r4c13v1.8.jpg	 r	 3.691	 GoodTrial	 1.8	 bl
2	 1	 1	 right	 LineStimuli//1.8/stimNo117r10c16v1.8.jpg	 l	 1.754	 GoodTrial	 1.8	 bl
3	 1	 1	 left	 LineStimuli//1.8/stimNo98r15c5v1.8.jpg	 l	 2.145	 GoodTrial	 1.8	 bl
4	 1	 1	 left	 LineStimuli//1.8/stimNo87r14c2v1.8.jpg	 l	 2.054	 GoodTrial	 1.8	 bl
5	 1	 0	 x	 LineStimuli//1.8/stimNo156r0c0v1.8.jpg	 r	 3.204	 GoodTrial	 1.8	 bl
6	 1	 0	 x	 LineStimuli//1.8/stimNo143r0c0v1.8.jpg	 r	 2.752	 GoodTrial	 1.8	 bl
7	 1	 1	 left	 LineStimuli//1.8/stimNo91r14c4v1.8.jpg	 l	 1.928	 GoodTrial	 1.8	 bl
8	 1	 0	 x	 LineStimuli//1.8/stimNo124r0c0v1.8.jpg	 r	 2.664	 GoodTrial	 1.8	 bl
9	 1	 1	 left	 LineStimuli//1.8/stimNo110r4c7v1.8.jpg	 l	 2.120	 GoodTrial	 1.8	 bl
10	 1	 0	 x	 LineStimuli//1.8/stimNo152r0c0v1.8.jpg	 r	 3.401	 GoodTrial	 1.8	 bl
11	 1	 1	 left	 LineStimuli//1.8/stimNo115r5c9v1.8.jpg	 l	 2.192	 GoodTrial	 1.8	 bl
12	 1	 0	 x	 LineStimuli//1.8/stimNo126r0c0v1.8.jpg	 r	 2.648	 GoodTrial	 1.8	 bl
13	 1	 1	 left	 LineStimuli//1.8/stimNo107r5c4v1.8.jpg	 l	 1.799	 GoodTrial	 1.8	 bl
14	 1	 1	 left	 LineStimuli//1.8/stimNo116r4c7v1.8.jpg	 r	 2.577	 GoodTrial	 1.8	 bl
15	 1	 0	 x	 LineStimuli//1.8/stimNo128r0c0v1.8.jpg	 r	 2.824	 GoodTrial	 1.8	 bl
16	 1	 0	 x	 LineStimuli//1.8/stimNo131r0c0v1.8.jpg	 r	 2.772	 GoodTrial	 1.8	 bl
17	 1	 1	 right	 LineStimuli//1.8/stimNo118r11c15v1.8.jpg	 l	 1.802	 GoodTrial	 1.8	 bl
18	 1	 0	 x	 LineStimuli//1.8/stimNo146r0c0v1.8.jpg	 r	 2.609	 GoodTrial	 1.8	 bl
19	 1	 1	 left	 LineStimuli//1.8/stimNo94r13c8v1.8.jpg	 l	 1.871	 GoodTrial	 1.8	 bl
20	 1	 1	 right	 LineStimuli//1.8/stimNo97r15c18v1.8.jpg	 l	 1.895	 GoodTrial	 1.8	 bl
21	 1	 1	 right	 LineStimuli//1.8/stimNo108r9c21v1.8.jpg	 r	 2.414	 GoodTrial	 1.8	 bl
22	 1	 0	 x	 LineStimuli//1.8/stimNo134r0c0v1.8.jpg	 r	 2.281	 GoodTrial	 1.8	 bl
23	 1	 1	 right	 LineStimuli//1.8/stimNo109r7c17v1.8.jpg	 l	 1.716	 GoodTrial	 1.8	 bl
24	 1	 0	 x	 LineStimuli//1.8/stimNo121r0c0v1.8.jpg	 r	 1.982	 GoodTrial	 1.8	 bl
25	 1	 1	 left	 LineStimuli//1.8/stimNo95r4c9v1.8.jpg	 l	 2.266	 GoodTrial	 1.8	 bl
26	 1	 0	 x	 LineStimuli//1.8/stimNo138r0c0v1.8.jpg	 r	 2.283	 GoodTrial	 1.8	 bl
27	 1	 0	 x	 LineStimuli//1.8/stimNo137r0c0v1.8.jpg	 r	 2.271	 GoodTrial	 1.8	 bl
28	 1	 0	 x	 LineStimuli//1.8/stimNo150r0c0v1.8.jpg	 r	 2.078	 GoodTrial	 1.8	 bl
29	 1	 1	 left	 LineStimuli//1.8/stimNo105r6c5v1.8.jpg	 l	 2.009	 GoodTrial	 1.8	 bl
30	 1	 0	 x	 LineStimuli//1.8/stimNo154r0c0v1.8.jpg	 r	 2.080	 GoodTrial	 1.8	 bl
31	 1	 1	 right	 LineStimuli//1.8/stimNo93r3c17v1.8.jpg	 l	 1.904	 GoodTrial	 1.8	 bl
32	 1	 0	 x	 LineStimuli//1.8/stimNo127r0c0v1.8.jpg	 r	 2.143	 GoodTrial	 1.8	 bl
33	 1	 1	 left	 LineStimuli//1.8/stimNo113r6c7v1.8.jpg	 l	 1.786	 GoodTrial	 1.8	 bl
34	 1	 0	 x	 LineStimuli//1.8/stimNo129r0c0v1.8.jpg	 r	 2.097	 GoodTrial	 1.8	 bl
35	 1	 0	 x	 LineStimuli//1.8/stimNo148r0c0v1.8.jpg	 r	 2.498	 GoodTrial	 1.8	 bl
36	 1	 1	 left	 LineStimuli//1.8/stimNo106r13c9v1.8.jpg	 l	 2.232	 GoodTrial	 1.8	 bl
37	 1	 0	 x	 LineStimuli//1.8/stimNo153r0c0v1.8.jpg	 r	 2.275	 GoodTrial	 1.8	 bl
38	 1	 1	 left	 LineStimuli//1.8/stimNo103r15c10v1.8.jpg	 l	 1.974	 GoodTrial	 1.8	 bl
39	 1	 1	 right	 LineStimuli//1.8/stimNo104r3c21v1.8.jpg	 r	 2.173	 GoodTrial	 1.8	 bl
40	 1	 0	 x	 LineStimuli//1.8/stimNo160r0c0v1.8.jpg	 r	 2.425	 GoodTrial	 1.8	 bl
41	 1	 0	 x	 LineStimuli//1.8/stimNo130r0c0v1.8.jpg	 r	 2.059	 GoodTrial	 1.8	 bl
42	 1	 0	 x	 LineStimuli//1.8/stimNo159r0c0v1.8.jpg	 r	 2.434	 GoodTrial	 1.8	 bl
43	 1	 0	 x	 LineStimuli//1.8/stimNo136r0c0v1.8.jpg	 r	 2.622	 GoodTrial	 1.8	 bl
44	 1	 0	 x	 LineStimuli//1.8/stimNo144r0c0v1.8.jpg	 r	 2.464	 GoodTrial	 1.8	 bl
45	 1	 0	 x	 LineStimuli//1.8/stimNo133r0c0v1.8.jpg	 r	 2.824	 GoodTrial	 1.8	 bl
46	 1	 0	 x	 LineStimuli//1.8/stimNo158r0c0v1.8.jpg	 r	 2.055	 GoodTrial	 1.8	 bl
47	 1	 1	 right	 LineStimuli//1.8/stimNo114r8c13v1.8.jpg	 l	 2.572	 GoodTrial	 1.8	 bl
48	 1	 1	 left	 LineStimuli//1.8/stimNo89r11c6v1.8.jpg	 l	 1.734	 GoodTrial	 1.8	 bl
49	 1	 0	 x	 LineStimuli//1.8/stimNo140r0c0v1.8.jpg	 r	 2.683	 GoodTrial	 1.8	 bl
50	 1	 0	 x	 LineStimuli//1.8/stimNo142r0c0v1.8.jpg	 r	 2.287	 GoodTrial	 1.8	 bl
1	 2	 0	 x	 LineStimuli//3.3/stimNo142r0c0v3.3.jpg	 r	 2.429	 GoodTrial	 3.3	 bl
2	 2	 1	 left	 LineStimuli//3.3/stimNo103r6c6v3.3.jpg	 l	 1.662	 GoodTrial	 3.3	 bl
3	 2	 1	 left	 LineStimuli//3.3/stimNo81r15c8v3.3.jpg	 l	 1.726	 GoodTrial	 3.3	 bl
4	 2	 1	 right	 LineStimuli//3.3/stimNo107r2c17v3.3.jpg	 l	 1.700	 GoodTrial	 3.3	 bl
5	 2	 0	 x	 LineStimuli//3.3/stimNo140r0c0v3.3.jpg	 r	 1.874	 GoodTrial	 3.3	 bl
6	 2	 0	 x	 LineStimuli//3.3/stimNo144r0c0v3.3.jpg	 r	 1.985	 GoodTrial	 3.3	 bl
7	 2	 0	 x	 LineStimuli//3.3/stimNo150r0c0v3.3.jpg	 r	 1.999	 GoodTrial	 3.3	 bl
8	 2	 0	 x	 LineStimuli//3.3/stimNo121r0c0v3.3.jpg	 r	 2.012	 GoodTrial	 3.3	 bl
9	 2	 0	 x	 LineStimuli//3.3/stimNo145r0c0v3.3.jpg	 r	 2.039	 GoodTrial	 3.3	 bl
10	 2	 1	 right	 LineStimuli//3.3/stimNo99r6c17v3.3.jpg	 l	 1.653	 GoodTrial	 3.3	 bl
11	 2	 0	 x	 LineStimuli//3.3/stimNo152r0c0v3.3.jpg	 r	 2.069	 GoodTrial	 3.3	 bl
12	 2	 0	 x	 LineStimuli//3.3/stimNo151r0c0v3.3.jpg	 r	 2.058	 GoodTrial	 3.3	 bl
13	 2	 1	 right	 LineStimuli//3.3/stimNo88r9c14v3.3.jpg	 l	 1.996	 GoodTrial	 3.3	 bl
14	 2	 1	 left	 LineStimuli//3.3/stimNo100r3c3v3.3.jpg	 l	 1.649	 GoodTrial	 3.3	 bl
15	 2	 1	 left	 LineStimuli//3.3/stimNo110r4c3v3.3.jpg	 l	 1.676	 GoodTrial	 3.3	 bl
16	 2	 1	 left	 LineStimuli//3.3/stimNo111r15c7v3.3.jpg	 l	 1.696	 GoodTrial	 3.3	 bl
17	 2	 0	 x	 LineStimuli//3.3/stimNo129r0c0v3.3.jpg	 r	 2.004	 GoodTrial	 3.3	 bl
18	 2	 1	 left	 LineStimuli//3.3/stimNo119r15c7v3.3.jpg	 l	 1.766	 GoodTrial	 3.3	 bl
19	 2	 1	 right	 LineStimuli//3.3/stimNo112r5c15v3.3.jpg	 l	 1.781	 GoodTrial	 3.3	 bl
20	 2	 0	 x	 LineStimuli//3.3/stimNo148r0c0v3.3.jpg	 r	 2.064	 GoodTrial	 3.3	 bl
21	 2	 0	 x	 LineStimuli//3.3/stimNo127r0c0v3.3.jpg	 r	 2.202	 GoodTrial	 3.3	 bl
22	 2	 0	 x	 LineStimuli//3.3/stimNo133r0c0v3.3.jpg	 r	 2.106	 GoodTrial	 3.3	 bl
23	 2	 0	 x	 LineStimuli//3.3/stimNo123r0c0v3.3.jpg	 r	 1.872	 GoodTrial	 3.3	 bl
24	 2	 1	 left	 LineStimuli//3.3/stimNo90r2c9v3.3.jpg	 l	 2.132	 GoodTrial	 3.3	 bl
25	 2	 1	 left	 LineStimuli//3.3/stimNo104r4c4v3.3.jpg	 l	 1.710	 GoodTrial	 3.3	 bl
26	 2	 1	 right	 LineStimuli//3.3/stimNo87r15c13v3.3.jpg	 l	 1.703	 GoodTrial	 3.3	 bl
27	 2	 1	 left	 LineStimuli//3.3/stimNo115r3c4v3.3.jpg	 l	 1.664	 GoodTrial	 3.3	 bl
28	 2	 0	 x	 LineStimuli//3.3/stimNo136r0c0v3.3.jpg	 r	 2.338	 GoodTrial	 3.3	 bl
29	 2	 1	 right	 LineStimuli//3.3/stimNo116r10c14v3.3.jpg	 l	 1.648	 GoodTrial	 3.3	 bl
30	 2	 1	 right	 LineStimuli//3.3/stimNo118r3c16v3.3.jpg	 l	 1.650	 GoodTrial	 3.3	 bl
31	 2	 0	 x	 LineStimuli//3.3/stimNo130r0c0v3.3.jpg	 r	 1.857	 GoodTrial	 3.3	 bl
32	 2	 1	 right	 LineStimuli//3.3/stimNo97r6c13v3.3.jpg	 l	 1.634	 GoodTrial	 3.3	 bl
33	 2	 0	 x	 LineStimuli//3.3/stimNo143r0c0v3.3.jpg	 r	 1.958	 GoodTrial	 3.3	 bl
34	 2	 1	 left	 LineStimuli//3.3/stimNo85r6c4v3.3.jpg	 l	 1.616	 GoodTrial	 3.3	 bl
35	 2	 0	 x	 LineStimuli//3.3/stimNo155r0c0v3.3.jpg	 r	 1.896	 GoodTrial	 3.3	 bl
36	 2	 1	 left	 LineStimuli//3.3/stimNo93r3c5v3.3.jpg	 l	 1.574	 GoodTrial	 3.3	 bl
37	 2	 1	 right	 LineStimuli//3.3/stimNo101r7c16v3.3.jpg	 l	 1.613	 GoodTrial	 3.3	 bl
38	 2	 1	 right	 LineStimuli//3.3/stimNo120r8c14v3.3.jpg	 l	 1.675	 GoodTrial	 3.3	 bl
39	 2	 0	 x	 LineStimuli//3.3/stimNo160r0c0v3.3.jpg	 r	 2.884	 GoodTrial	 3.3	 bl
40	 2	 1	 left	 LineStimuli//3.3/stimNo83r8c3v3.3.jpg	 l	 1.668	 GoodTrial	 3.3	 bl
41	 2	 1	 right	 LineStimuli//3.3/stimNo114r11c21v3.3.jpg	 l	 1.760	 GoodTrial	 3.3	 bl
42	 2	 0	 x	 LineStimuli//3.3/stimNo126r0c0v3.3.jpg	 r	 2.209	 GoodTrial	 3.3	 bl
43	 2	 0	 x	 LineStimuli//3.3/stimNo125r0c0v3.3.jpg	 r	 1.898	 GoodTrial	 3.3	 bl
44	 2	 1	 left	 LineStimuli//3.3/stimNo109r15c7v3.3.jpg	 l	 1.710	 GoodTrial	 3.3	 bl
45	 2	 1	 right	 LineStimuli//3.3/stimNo105r7c20v3.3.jpg	 l	 1.628	 GoodTrial	 3.3	 bl
46	 2	 1	 right	 LineStimuli//3.3/stimNo91r12c16v3.3.jpg	 l	 1.569	 GoodTrial	 3.3	 bl
47	 2	 0	 x	 LineStimuli//3.3/stimNo154r0c0v3.3.jpg	 r	 2.104	 GoodTrial	 3.3	 bl
48	 2	 1	 left	 LineStimuli//3.3/stimNo117r2c5v3.3.jpg	 l	 1.768	 GoodTrial	 3.3	 bl
49	 2	 0	 x	 LineStimuli//3.3/stimNo137r0c0v3.3.jpg	 r	 1.870	 GoodTrial	 3.3	 bl
50	 2	 0	 x	 LineStimuli//3.3/stimNo149r0c0v3.3.jpg	 r	 2.022	 GoodTrial	 3.3	 bl
1	 3	 0	 x	 LineStimuli//1.5/stimNo148r0c0v1.5.jpg	 r	 2.690	 GoodTrial	 1.5	 bl
2	 3	 0	 x	 LineStimuli//1.5/stimNo141r0c0v1.5.jpg	 r	 2.181	 GoodTrial	 1.5	 bl
3	 3	 1	 right	 LineStimuli//1.5/stimNo107r2c19v1.5.jpg	 r	 2.676	 GoodTrial	 1.5	 bl
4	 3	 1	 right	 LineStimuli//1.5/stimNo103r13c17v1.5.jpg	 r	 2.519	 GoodTrial	 1.5	 bl
5	 3	 0	 x	 LineStimuli//1.5/stimNo121r0c0v1.5.jpg	 r	 2.320	 GoodTrial	 1.5	 bl
6	 3	 0	 x	 LineStimuli//1.5/stimNo135r0c0v1.5.jpg	 r	 2.109	 GoodTrial	 1.5	 bl
7	 3	 0	 x	 LineStimuli//1.5/stimNo134r0c0v1.5.jpg	 r	 1.895	 GoodTrial	 1.5	 bl
8	 3	 0	 x	 LineStimuli//1.5/stimNo152r0c0v1.5.jpg	 r	 2.436	 GoodTrial	 1.5	 bl
9	 3	 0	 x	 LineStimuli//1.5/stimNo122r0c0v1.5.jpg	 r	 2.987	 GoodTrial	 1.5	 bl
10	 3	 0	 x	 LineStimuli//1.5/stimNo136r0c0v1.5.jpg	 r	 2.467	 GoodTrial	 1.5	 bl
11	 3	 0	 x	 LineStimuli//1.5/stimNo125r0c0v1.5.jpg	 r	 3.460	 GoodTrial	 1.5	 bl
12	 3	 1	 left	 LineStimuli//1.5/stimNo88r6c7v1.5.jpg	 r	 3.280	 GoodTrial	 1.5	 bl
13	 3	 0	 x	 LineStimuli//1.5/stimNo158r0c0v1.5.jpg	 r	 2.796	 GoodTrial	 1.5	 bl
14	 3	 0	 x	 LineStimuli//1.5/stimNo156r0c0v1.5.jpg	 r	 4.102	 GoodTrial	 1.5	 bl
15	 3	 1	 left	 LineStimuli//1.5/stimNo117r7c8v1.5.jpg	 r	 2.792	 GoodTrial	 1.5	 bl
16	 3	 0	 x	 LineStimuli//1.5/stimNo126r0c0v1.5.jpg	 r	 3.959	 GoodTrial	 1.5	 bl
17	 3	 1	 left	 LineStimuli//1.5/stimNo116r7c7v1.5.jpg	 r	 3.368	 GoodTrial	 1.5	 bl
18	 3	 1	 right	 LineStimuli//1.5/stimNo98r8c21v1.5.jpg	 r	 3.351	 GoodTrial	 1.5	 bl
19	 3	 1	 right	 LineStimuli//1.5/stimNo100r6c20v1.5.jpg	 r	 3.214	 GoodTrial	 1.5	 bl
20	 3	 1	 left	 LineStimuli//1.5/stimNo120r14c2v1.5.jpg	 r	 4.135	 GoodTrial	 1.5	 bl
21	 3	 1	 left	 LineStimuli//1.5/stimNo114r4c4v1.5.jpg	 r	 3.444	 GoodTrial	 1.5	 bl
22	 3	 0	 x	 LineStimuli//1.5/stimNo133r0c0v1.5.jpg	 r	 2.282	 GoodTrial	 1.5	 bl
23	 3	 0	 x	 LineStimuli//1.5/stimNo129r0c0v1.5.jpg	 r	 2.694	 GoodTrial	 1.5	 bl
24	 3	 0	 x	 LineStimuli//1.5/stimNo127r0c0v1.5.jpg	 r	 3.699	 GoodTrial	 1.5	 bl
25	 3	 1	 left	 LineStimuli//1.5/stimNo91r9c3v1.5.jpg	 r	 3.699	 GoodTrial	 1.5	 bl
26	 3	 0	 x	 LineStimuli//1.5/stimNo139r0c0v1.5.jpg	 r	 2.572	 GoodTrial	 1.5	 bl
27	 3	 0	 x	 LineStimuli//1.5/stimNo149r0c0v1.5.jpg	 r	 3.194	 GoodTrial	 1.5	 bl
28	 3	 1	 left	 LineStimuli//1.5/stimNo85r2c5v1.5.jpg	 r	 2.604	 GoodTrial	 1.5	 bl
29	 3	 1	 left	 LineStimuli//1.5/stimNo96r15c4v1.5.jpg	 r	 3.056	 GoodTrial	 1.5	 bl
30	 3	 0	 x	 LineStimuli//1.5/stimNo140r0c0v1.5.jpg	 r	 3.208	 GoodTrial	 1.5	 bl
31	 3	 1	 right	 LineStimuli//1.5/stimNo119r6c19v1.5.jpg	 r	 2.362	 GoodTrial	 1.5	 bl
32	 3	 1	 right	 LineStimuli//1.5/stimNo81r6c17v1.5.jpg	 r	 2.185	 GoodTrial	 1.5	 bl
33	 3	 0	 x	 LineStimuli//1.5/stimNo154r0c0v1.5.jpg	 r	 2.760	 GoodTrial	 1.5	 bl
34	 3	 0	 x	 LineStimuli//1.5/stimNo128r0c0v1.5.jpg	 r	 3.080	 GoodTrial	 1.5	 bl
35	 3	 0	 x	 LineStimuli//1.5/stimNo143r0c0v1.5.jpg	 r	 2.587	 GoodTrial	 1.5	 bl
36	 3	 0	 x	 LineStimuli//1.5/stimNo137r0c0v1.5.jpg	 r	 2.442	 GoodTrial	 1.5	 bl
37	 3	 0	 x	 LineStimuli//1.5/stimNo147r0c0v1.5.jpg	 r	 2.503	 GoodTrial	 1.5	 bl
38	 3	 0	 x	 LineStimuli//1.5/stimNo150r0c0v1.5.jpg	 r	 2.972	 GoodTrial	 1.5	 bl
39	 3	 1	 right	 LineStimuli//1.5/stimNo108r13c15v1.5.jpg	 r	 3.490	 GoodTrial	 1.5	 bl
40	 3	 0	 x	 LineStimuli//1.5/stimNo157r0c0v1.5.jpg	 r	 3.230	 GoodTrial	 1.5	 bl
41	 3	 0	 x	 LineStimuli//1.5/stimNo153r0c0v1.5.jpg	 r	 3.245	 GoodTrial	 1.5	 bl
42	 3	 1	 right	 LineStimuli//1.5/stimNo95r6c14v1.5.jpg	 r	 3.031	 GoodTrial	 1.5	 bl
43	 3	 1	 left	 LineStimuli//1.5/stimNo112r9c5v1.5.jpg	 r	 2.826	 GoodTrial	 1.5	 bl
44	 3	 0	 x	 LineStimuli//1.5/stimNo131r0c0v1.5.jpg	 r	 2.974	 GoodTrial	 1.5	 bl
45	 3	 0	 x	 LineStimuli//1.5/stimNo142r0c0v1.5.jpg	 r	 3.532	 GoodTrial	 1.5	 bl
46	 3	 1	 right	 LineStimuli//1.5/stimNo101r5c20v1.5.jpg	 r	 3.025	 GoodTrial	 1.5	 bl
47	 3	 0	 x	 LineStimuli//1.5/stimNo146r0c0v1.5.jpg	 r	 2.830	 GoodTrial	 1.5	 bl
48	 3	 1	 right	 LineStimuli//1.5/stimNo90r3c15v1.5.jpg	 r	 2.985	 GoodTrial	 1.5	 bl
49	 3	 1	 right	 LineStimuli//1.5/stimNo104r5c18v1.5.jpg	 r	 2.555	 GoodTrial	 1.5	 bl
50	 3	 1	 left	 LineStimuli//1.5/stimNo87r12c5v1.5.jpg	 l	 2.223	 GoodTrial	 1.5	 bl
1	 4	 0	 x	 LineStimuli//3.8/stimNo143r0c0v3.8.jpg	 r	 2.628	 GoodTrial	 3.8	 bl
2	 4	 0	 x	 LineStimuli//3.8/stimNo149r0c0v3.8.jpg	 r	 2.206	 GoodTrial	 3.8	 bl
3	 4	 0	 x	 LineStimuli//3.8/stimNo132r0c0v3.8.jpg	 r	 2.258	 GoodTrial	 3.8	 bl
4	 4	 1	 left	 LineStimuli//3.8/stimNo104r12c8v3.8.jpg	 l	 1.707	 GoodTrial	 3.8	 bl
5	 4	 1	 right	 LineStimuli//3.8/stimNo107r9c18v3.8.jpg	 l	 1.825	 GoodTrial	 3.8	 bl
6	 4	 1	 left	 LineStimuli//3.8/stimNo106r9c9v3.8.jpg	 l	 1.754	 GoodTrial	 3.8	 bl
7	 4	 1	 left	 LineStimuli//3.8/stimNo116r7c3v3.8.jpg	 l	 1.641	 GoodTrial	 3.8	 bl
8	 4	 0	 x	 LineStimuli//3.8/stimNo131r0c0v3.8.jpg	 r	 2.296	 GoodTrial	 3.8	 bl
9	 4	 1	 left	 LineStimuli//3.8/stimNo103r11c7v3.8.jpg	 l	 1.656	 GoodTrial	 3.8	 bl
10	 4	 1	 left	 LineStimuli//3.8/stimNo109r11c8v3.8.jpg	 l	 1.582	 GoodTrial	 3.8	 bl
11	 4	 1	 left	 LineStimuli//3.8/stimNo108r3c6v3.8.jpg	 l	 1.653	 GoodTrial	 3.8	 bl
12	 4	 0	 x	 LineStimuli//3.8/stimNo133r0c0v3.8.jpg	 r	 2.122	 GoodTrial	 3.8	 bl
13	 4	 1	 right	 LineStimuli//3.8/stimNo95r5c21v3.8.jpg	 l	 1.729	 GoodTrial	 3.8	 bl
14	 4	 0	 x	 LineStimuli//3.8/stimNo150r0c0v3.8.jpg	 r	 1.958	 GoodTrial	 3.8	 bl
15	 4	 1	 left	 LineStimuli//3.8/stimNo83r9c9v3.8.jpg	 l	 1.602	 GoodTrial	 3.8	 bl
16	 4	 0	 x	 LineStimuli//3.8/stimNo121r0c0v3.8.jpg	 r	 2.239	 GoodTrial	 3.8	 bl
17	 4	 1	 left	 LineStimuli//3.8/stimNo119r9c8v3.8.jpg	 l	 1.635	 GoodTrial	 3.8	 bl
18	 4	 0	 x	 LineStimuli//3.8/stimNo154r0c0v3.8.jpg	 r	 1.854	 GoodTrial	 3.8	 bl
19	 4	 0	 x	 LineStimuli//3.8/stimNo136r0c0v3.8.jpg	 r	 2.109	 GoodTrial	 3.8	 bl
20	 4	 1	 left	 LineStimuli//3.8/stimNo98r2c9v3.8.jpg	 l	 1.594	 GoodTrial	 3.8	 bl
21	 4	 1	 right	 LineStimuli//3.8/stimNo114r10c14v3.8.jpg	 l	 1.625	 GoodTrial	 3.8	 bl
22	 4	 1	 right	 LineStimuli//3.8/stimNo85r3c13v3.8.jpg	 l	 1.615	 GoodTrial	 3.8	 bl
23	 4	 1	 right	 LineStimuli//3.8/stimNo88r10c17v3.8.jpg	 l	 1.516	 GoodTrial	 3.8	 bl
24	 4	 0	 x	 LineStimuli//3.8/stimNo155r0c0v3.8.jpg	 r	 2.258	 GoodTrial	 3.8	 bl
25	 4	 0	 x	 LineStimuli//3.8/stimNo144r0c0v3.8.jpg	 r	 1.941	 GoodTrial	 3.8	 bl
26	 4	 0	 x	 LineStimuli//3.8/stimNo135r0c0v3.8.jpg	 r	 2.165	 GoodTrial	 3.8	 bl
27	 4	 1	 right	 LineStimuli//3.8/stimNo90r8c17v3.8.jpg	 l	 1.655	 GoodTrial	 3.8	 bl
28	 4	 0	 x	 LineStimuli//3.8/stimNo151r0c0v3.8.jpg	 r	 1.954	 GoodTrial	 3.8	 bl
29	 4	 0	 x	 LineStimuli//3.8/stimNo124r0c0v3.8.jpg	 r	 2.141	 GoodTrial	 3.8	 bl
30	 4	 1	 left	 LineStimuli//3.8/stimNo120r5c3v3.8.jpg	 l	 1.675	 GoodTrial	 3.8	 bl
31	 4	 1	 left	 LineStimuli//3.8/stimNo105r2c6v3.8.jpg	 l	 1.613	 GoodTrial	 3.8	 bl
32	 4	 0	 x	 LineStimuli//3.8/stimNo125r0c0v3.8.jpg	 r	 2.027	 GoodTrial	 3.8	 bl
33	 4	 1	 right	 LineStimuli//3.8/stimNo81r3c21v3.8.jpg	 l	 1.719	 GoodTrial	 3.8	 bl
34	 4	 0	 x	 LineStimuli//3.8/stimNo145r0c0v3.8.jpg	 r	 2.123	 GoodTrial	 3.8	 bl
35	 4	 1	 left	 LineStimuli//3.8/stimNo100r13c6v3.8.jpg	 l	 1.639	 GoodTrial	 3.8	 bl
36	 4	 1	 right	 LineStimuli//3.8/stimNo87r6c13v3.8.jpg	 l	 1.720	 GoodTrial	 3.8	 bl
37	 4	 0	 x	 LineStimuli//3.8/stimNo156r0c0v3.8.jpg	 r	 2.352	 GoodTrial	 3.8	 bl
38	 4	 1	 right	 LineStimuli//3.8/stimNo84r9c19v3.8.jpg	 l	 1.812	 GoodTrial	 3.8	 bl
39	 4	 0	 x	 LineStimuli//3.8/stimNo141r0c0v3.8.jpg	 r	 1.892	 GoodTrial	 3.8	 bl
40	 4	 1	 left	 LineStimuli//3.8/stimNo89r10c7v3.8.jpg	 l	 1.609	 GoodTrial	 3.8	 bl
41	 4	 0	 x	 LineStimuli//3.8/stimNo137r0c0v3.8.jpg	 r	 1.974	 GoodTrial	 3.8	 bl
42	 4	 1	 left	 LineStimuli//3.8/stimNo118r4c8v3.8.jpg	 l	 1.725	 GoodTrial	 3.8	 bl
43	 4	 0	 x	 LineStimuli//3.8/stimNo160r0c0v3.8.jpg	 r	 2.083	 GoodTrial	 3.8	 bl
44	 4	 1	 left	 LineStimuli//3.8/stimNo93r8c2v3.8.jpg	 l	 1.733	 GoodTrial	 3.8	 bl
45	 4	 1	 left	 LineStimuli//3.8/stimNo110r7c9v3.8.jpg	 l	 1.715	 GoodTrial	 3.8	 bl
46	 4	 0	 x	 LineStimuli//3.8/stimNo153r0c0v3.8.jpg	 r	 2.259	 GoodTrial	 3.8	 bl
47	 4	 1	 right	 LineStimuli//3.8/stimNo94r6c17v3.8.jpg	 l	 1.635	 GoodTrial	 3.8	 bl
48	 4	 0	 x	 LineStimuli//3.8/stimNo139r0c0v3.8.jpg	 r	 2.097	 GoodTrial	 3.8	 bl
49	 4	 0	 x	 LineStimuli//3.8/stimNo123r0c0v3.8.jpg	 r	 2.297	 GoodTrial	 3.8	 bl
50	 4	 1	 left	 LineStimuli//3.8/stimNo115r14c10v3.8.jpg	 l	 1.717	 GoodTrial	 3.8	 bl
1	 5	 0	 x	 LineStimuli//2.8/stimNo157r0c0v2.8.jpg	 r	 2.588	 GoodTrial	 2.8	 bl
2	 5	 0	 x	 LineStimuli//2.8/stimNo136r0c0v2.8.jpg	 r	 2.343	 GoodTrial	 2.8	 bl
3	 5	 1	 left	 LineStimuli//2.8/stimNo104r8c6v2.8.jpg	 l	 1.762	 GoodTrial	 2.8	 bl
4	 5	 1	 right	 LineStimuli//2.8/stimNo111r9c15v2.8.jpg	 l	 1.753	 GoodTrial	 2.8	 bl
5	 5	 1	 left	 LineStimuli//2.8/stimNo102r3c2v2.8.jpg	 l	 1.875	 GoodTrial	 2.8	 bl
6	 5	 0	 x	 LineStimuli//2.8/stimNo147r0c0v2.8.jpg	 r	 2.176	 GoodTrial	 2.8	 bl
7	 5	 0	 x	 LineStimuli//2.8/stimNo141r0c0v2.8.jpg	 r	 2.214	 GoodTrial	 2.8	 bl
8	 5	 1	 right	 LineStimuli//2.8/stimNo112r13c17v2.8.jpg	 l	 1.588	 GoodTrial	 2.8	 bl
9	 5	 0	 x	 LineStimuli//2.8/stimNo149r0c0v2.8.jpg	 r	 2.154	 GoodTrial	 2.8	 bl
10	 5	 1	 left	 LineStimuli//2.8/stimNo88r15c3v2.8.jpg	 l	 2.138	 GoodTrial	 2.8	 bl
11	 5	 1	 right	 LineStimuli//2.8/stimNo100r8c13v2.8.jpg	 l	 2.401	 GoodTrial	 2.8	 bl
12	 5	 1	 right	 LineStimuli//2.8/stimNo118r5c16v2.8.jpg	 l	 1.652	 GoodTrial	 2.8	 bl
13	 5	 1	 right	 LineStimuli//2.8/stimNo93r9c20v2.8.jpg	 l	 1.676	 GoodTrial	 2.8	 bl
14	 5	 1	 left	 LineStimuli//2.8/stimNo97r11c4v2.8.jpg	 l	 1.661	 GoodTrial	 2.8	 bl
15	 5	 0	 x	 LineStimuli//2.8/stimNo152r0c0v2.8.jpg	 r	 2.455	 GoodTrial	 2.8	 bl
16	 5	 0	 x	 LineStimuli//2.8/stimNo124r0c0v2.8.jpg	 r	 2.682	 GoodTrial	 2.8	 bl
17	 5	 0	 x	 LineStimuli//2.8/stimNo156r0c0v2.8.jpg	 r	 2.413	 GoodTrial	 2.8	 bl
18	 5	 1	 left	 LineStimuli//2.8/stimNo83r12c4v2.8.jpg	 l	 1.740	 GoodTrial	 2.8	 bl
19	 5	 0	 x	 LineStimuli//2.8/stimNo151r0c0v2.8.jpg	 r	 2.170	 GoodTrial	 2.8	 bl
20	 5	 0	 x	 LineStimuli//2.8/stimNo154r0c0v2.8.jpg	 r	 2.164	 GoodTrial	 2.8	 bl
21	 5	 1	 right	 LineStimuli//2.8/stimNo109r6c18v2.8.jpg	 l	 1.680	 GoodTrial	 2.8	 bl
22	 5	 1	 left	 LineStimuli//2.8/stimNo105r5c4v2.8.jpg	 l	 1.721	 GoodTrial	 2.8	 bl
23	 5	 1	 left	 LineStimuli//2.8/stimNo107r5c6v2.8.jpg	 l	 1.599	 GoodTrial	 2.8	 bl
24	 5	 0	 x	 LineStimuli//2.8/stimNo150r0c0v2.8.jpg	 r	 2.057	 GoodTrial	 2.8	 bl
25	 5	 1	 right	 LineStimuli//2.8/stimNo90r13c21v2.8.jpg	 l	 2.534	 GoodTrial	 2.8	 bl
26	 5	 1	 left	 LineStimuli//2.8/stimNo84r3c9v2.8.jpg	 l	 2.080	 GoodTrial	 2.8	 bl
27	 5	 0	 x	 LineStimuli//2.8/stimNo123r0c0v2.8.jpg	 r	 2.438	 GoodTrial	 2.8	 bl
28	 5	 0	 x	 LineStimuli//2.8/stimNo130r0c0v2.8.jpg	 r	 2.321	 GoodTrial	 2.8	 bl
29	 5	 0	 x	 LineStimuli//2.8/stimNo153r0c0v2.8.jpg	 r	 2.221	 GoodTrial	 2.8	 bl
30	 5	 0	 x	 LineStimuli//2.8/stimNo127r0c0v2.8.jpg	 r	 3.350	 GoodTrial	 2.8	 bl
31	 5	 0	 x	 LineStimuli//2.8/stimNo139r0c0v2.8.jpg	 r	 3.431	 GoodTrial	 2.8	 bl
32	 5	 0	 x	 LineStimuli//2.8/stimNo134r0c0v2.8.jpg	 r	 2.706	 GoodTrial	 2.8	 bl
33	 5	 0	 x	 LineStimuli//2.8/stimNo143r0c0v2.8.jpg	 r	 2.461	 GoodTrial	 2.8	 bl
34	 5	 0	 x	 LineStimuli//2.8/stimNo145r0c0v2.8.jpg	 r	 2.218	 GoodTrial	 2.8	 bl
35	 5	 0	 x	 LineStimuli//2.8/stimNo121r0c0v2.8.jpg	 r	 1.805	 GoodTrial	 2.8	 bl
36	 5	 1	 left	 LineStimuli//2.8/stimNo89r12c4v2.8.jpg	 l	 1.840	 GoodTrial	 2.8	 bl
37	 5	 1	 left	 LineStimuli//2.8/stimNo96r6c9v2.8.jpg	 l	 1.613	 GoodTrial	 2.8	 bl
38	 5	 1	 right	 LineStimuli//2.8/stimNo101r12c16v2.8.jpg	 l	 1.722	 GoodTrial	 2.8	 bl
39	 5	 1	 left	 LineStimuli//2.8/stimNo116r4c7v2.8.jpg	 l	 1.679	 GoodTrial	 2.8	 bl
40	 5	 1	 left	 LineStimuli//2.8/stimNo108r13c6v2.8.jpg	 l	 1.671	 GoodTrial	 2.8	 bl
41	 5	 0	 x	 LineStimuli//2.8/stimNo159r0c0v2.8.jpg	 r	 2.351	 GoodTrial	 2.8	 bl
42	 5	 1	 right	 LineStimuli//2.8/stimNo81r8c14v2.8.jpg	 l	 1.774	 GoodTrial	 2.8	 bl
43	 5	 1	 left	 LineStimuli//2.8/stimNo82r4c6v2.8.jpg	 l	 1.736	 GoodTrial	 2.8	 bl
44	 5	 1	 right	 LineStimuli//2.8/stimNo106r13c20v2.8.jpg	 l	 1.732	 GoodTrial	 2.8	 bl
45	 5	 1	 left	 LineStimuli//2.8/stimNo113r9c5v2.8.jpg	 l	 1.652	 GoodTrial	 2.8	 bl
46	 5	 0	 x	 LineStimuli//2.8/stimNo144r0c0v2.8.jpg	 r	 2.517	 GoodTrial	 2.8	 bl
47	 5	 1	 right	 LineStimuli//2.8/stimNo99r9c18v2.8.jpg	 l	 1.714	 GoodTrial	 2.8	 bl
48	 5	 0	 x	 LineStimuli//2.8/stimNo135r0c0v2.8.jpg	 r	 2.272	 GoodTrial	 2.8	 bl
49	 5	 0	 x	 LineStimuli//2.8/stimNo129r0c0v2.8.jpg	 r	 2.280	 GoodTrial	 2.8	 bl
50	 5	 0	 x	 LineStimuli//2.8/stimNo126r0c0v2.8.jpg	 r	 2.090	 GoodTrial	 2.8	 bl
1	 6	 0	 x	 LineStimuli//2.3/stimNo128r0c0v2.3.jpg	 r	 2.462	 GoodTrial	 2.3	 bl
2	 6	 0	 x	 LineStimuli//2.3/stimNo122r0c0v2.3.jpg	 r	 2.234	 GoodTrial	 2.3	 bl
3	 6	 1	 left	 LineStimuli//2.3/stimNo114r7c8v2.3.jpg	 r	 2.567	 GoodTrial	 2.3	 bl
4	 6	 1	 left	 LineStimuli//2.3/stimNo119r3c2v2.3.jpg	 l	 1.844	 GoodTrial	 2.3	 bl
5	 6	 1	 left	 LineStimuli//2.3/stimNo106r9c9v2.3.jpg	 l	 1.778	 GoodTrial	 2.3	 bl
6	 6	 0	 x	 LineStimuli//2.3/stimNo160r0c0v2.3.jpg	 r	 2.220	 GoodTrial	 2.3	 bl
7	 6	 0	 x	 LineStimuli//2.3/stimNo133r0c0v2.3.jpg	 r	 2.291	 GoodTrial	 2.3	 bl
8	 6	 0	 x	 LineStimuli//2.3/stimNo130r0c0v2.3.jpg	 r	 2.442	 GoodTrial	 2.3	 bl
9	 6	 0	 x	 LineStimuli//2.3/stimNo156r0c0v2.3.jpg	 r	 2.023	 GoodTrial	 2.3	 bl
10	 6	 1	 left	 LineStimuli//2.3/stimNo116r2c2v2.3.jpg	 l	 1.934	 GoodTrial	 2.3	 bl
11	 6	 1	 left	 LineStimuli//2.3/stimNo117r11c8v2.3.jpg	 l	 1.709	 GoodTrial	 2.3	 bl
12	 6	 0	 x	 LineStimuli//2.3/stimNo121r0c0v2.3.jpg	 r	 2.348	 GoodTrial	 2.3	 bl
13	 6	 0	 x	 LineStimuli//2.3/stimNo152r0c0v2.3.jpg	 r	 2.345	 GoodTrial	 2.3	 bl
14	 6	 0	 x	 LineStimuli//2.3/stimNo139r0c0v2.3.jpg	 r	 2.419	 GoodTrial	 2.3	 bl
15	 6	 1	 left	 LineStimuli//2.3/stimNo112r3c2v2.3.jpg	 l	 1.893	 GoodTrial	 2.3	 bl
16	 6	 1	 right	 LineStimuli//2.3/stimNo93r4c16v2.3.jpg	 l	 1.835	 GoodTrial	 2.3	 bl
17	 6	 1	 left	 LineStimuli//2.3/stimNo115r7c3v2.3.jpg	 l	 1.822	 GoodTrial	 2.3	 bl
18	 6	 0	 x	 LineStimuli//2.3/stimNo148r0c0v2.3.jpg	 r	 2.688	 GoodTrial	 2.3	 bl
19	 6	 0	 x	 LineStimuli//2.3/stimNo151r0c0v2.3.jpg	 r	 2.866	 GoodTrial	 2.3	 bl
20	 6	 1	 right	 LineStimuli//2.3/stimNo111r11c21v2.3.jpg	 l	 1.836	 GoodTrial	 2.3	 bl
21	 6	 0	 x	 LineStimuli//2.3/stimNo159r0c0v2.3.jpg	 r	 2.084	 GoodTrial	 2.3	 bl
22	 6	 1	 right	 LineStimuli//2.3/stimNo101r8c14v2.3.jpg	 l	 1.827	 GoodTrial	 2.3	 bl
23	 6	 1	 right	 LineStimuli//2.3/stimNo84r15c14v2.3.jpg	 l	 1.789	 GoodTrial	 2.3	 bl
24	 6	 1	 right	 LineStimuli//2.3/stimNo99r2c13v2.3.jpg	 l	 2.167	 GoodTrial	 2.3	 bl
25	 6	 0	 x	 LineStimuli//2.3/stimNo138r0c0v2.3.jpg	 r	 2.217	 GoodTrial	 2.3	 bl
26	 6	 1	 left	 LineStimuli//2.3/stimNo96r3c3v2.3.jpg	 l	 1.701	 GoodTrial	 2.3	 bl
27	 6	 1	 right	 LineStimuli//2.3/stimNo118r4c17v2.3.jpg	 l	 1.671	 GoodTrial	 2.3	 bl
28	 6	 1	 right	 LineStimuli//2.3/stimNo90r14c21v2.3.jpg	 l	 2.661	 GoodTrial	 2.3	 bl
29	 6	 1	 right	 LineStimuli//2.3/stimNo92r10c17v2.3.jpg	 l	 1.779	 GoodTrial	 2.3	 bl
30	 6	 0	 x	 LineStimuli//2.3/stimNo134r0c0v2.3.jpg	 r	 2.232	 GoodTrial	 2.3	 bl
31	 6	 1	 right	 LineStimuli//2.3/stimNo98r12c21v2.3.jpg	 l	 1.919	 GoodTrial	 2.3	 bl
32	 6	 1	 right	 LineStimuli//2.3/stimNo103r11c21v2.3.jpg	 l	 1.732	 GoodTrial	 2.3	 bl
33	 6	 1	 right	 LineStimuli//2.3/stimNo120r4c17v2.3.jpg	 l	 1.787	 GoodTrial	 2.3	 bl
34	 6	 1	 right	 LineStimuli//2.3/stimNo105r14c14v2.3.jpg	 l	 1.668	 GoodTrial	 2.3	 bl
35	 6	 0	 x	 LineStimuli//2.3/stimNo155r0c0v2.3.jpg	 r	 2.369	 GoodTrial	 2.3	 bl
36	 6	 1	 left	 LineStimuli//2.3/stimNo94r8c9v2.3.jpg	 r	 2.260	 GoodTrial	 2.3	 bl
37	 6	 0	 x	 LineStimuli//2.3/stimNo136r0c0v2.3.jpg	 r	 2.048	 GoodTrial	 2.3	 bl
38	 6	 1	 right	 LineStimuli//2.3/stimNo85r4c15v2.3.jpg	 l	 1.841	 GoodTrial	 2.3	 bl
39	 6	 1	 left	 LineStimuli//2.3/stimNo113r3c8v2.3.jpg	 l	 1.757	 GoodTrial	 2.3	 bl
40	 6	 0	 x	 LineStimuli//2.3/stimNo146r0c0v2.3.jpg	 r	 2.101	 GoodTrial	 2.3	 bl
41	 6	 1	 left	 LineStimuli//2.3/stimNo82r12c4v2.3.jpg	 l	 1.812	 GoodTrial	 2.3	 bl
42	 6	 0	 x	 LineStimuli//2.3/stimNo129r0c0v2.3.jpg	 r	 1.928	 GoodTrial	 2.3	 bl
43	 6	 0	 x	 LineStimuli//2.3/stimNo143r0c0v2.3.jpg	 r	 2.095	 GoodTrial	 2.3	 bl
44	 6	 1	 left	 LineStimuli//2.3/stimNo86r8c9v2.3.jpg	 r	 2.432	 GoodTrial	 2.3	 bl
45	 6	 0	 x	 LineStimuli//2.3/stimNo135r0c0v2.3.jpg	 r	 2.236	 GoodTrial	 2.3	 bl
46	 6	 0	 x	 LineStimuli//2.3/stimNo141r0c0v2.3.jpg	 r	 2.625	 GoodTrial	 2.3	 bl
47	 6	 1	 right	 LineStimuli//2.3/stimNo91r11c20v2.3.jpg	 l	 2.556	 GoodTrial	 2.3	 bl
48	 6	 0	 x	 LineStimuli//2.3/stimNo127r0c0v2.3.jpg	 r	 2.234	 GoodTrial	 2.3	 bl
49	 6	 0	 x	 LineStimuli//2.3/stimNo140r0c0v2.3.jpg	 r	 2.704	 GoodTrial	 2.3	 bl
50	 6	 0	 x	 LineStimuli//2.3/stimNo144r0c0v2.3.jpg	 r	 2.344	 GoodTrial	 2.3	 bl
1	 7	 0	 x	 LineStimuli//4.3/stimNo139r0c0v4.3.jpg	 r	 2.795	 GoodTrial	 4.3	 bl
2	 7	 0	 x	 LineStimuli//4.3/stimNo133r0c0v4.3.jpg	 r	 2.147	 GoodTrial	 4.3	 bl
3	 7	 1	 left	 LineStimuli//4.3/stimNo101r5c5v4.3.jpg	 l	 1.736	 GoodTrial	 4.3	 bl
4	 7	 1	 right	 LineStimuli//4.3/stimNo102r10c19v4.3.jpg	 l	 1.793	 GoodTrial	 4.3	 bl
5	 7	 1	 left	 LineStimuli//4.3/stimNo98r3c8v4.3.jpg	 l	 1.634	 GoodTrial	 4.3	 bl
6	 7	 0	 x	 LineStimuli//4.3/stimNo126r0c0v4.3.jpg	 r	 1.882	 GoodTrial	 4.3	 bl
7	 7	 1	 left	 LineStimuli//4.3/stimNo87r3c5v4.3.jpg	 l	 1.795	 GoodTrial	 4.3	 bl
8	 7	 1	 right	 LineStimuli//4.3/stimNo119r12c17v4.3.jpg	 l	 1.713	 GoodTrial	 4.3	 bl
9	 7	 1	 right	 LineStimuli//4.3/stimNo94r12c13v4.3.jpg	 l	 1.648	 GoodTrial	 4.3	 bl
10	 7	 0	 x	 LineStimuli//4.3/stimNo136r0c0v4.3.jpg	 r	 1.908	 GoodTrial	 4.3	 bl
11	 7	 1	 left	 LineStimuli//4.3/stimNo106r8c2v4.3.jpg	 l	 1.756	 GoodTrial	 4.3	 bl
12	 7	 1	 right	 LineStimuli//4.3/stimNo91r9c13v4.3.jpg	 l	 1.637	 GoodTrial	 4.3	 bl
13	 7	 0	 x	 LineStimuli//4.3/stimNo121r0c0v4.3.jpg	 r	 2.078	 GoodTrial	 4.3	 bl
14	 7	 0	 x	 LineStimuli//4.3/stimNo135r0c0v4.3.jpg	 r	 2.180	 GoodTrial	 4.3	 bl
15	 7	 0	 x	 LineStimuli//4.3/stimNo146r0c0v4.3.jpg	 r	 2.033	 GoodTrial	 4.3	 bl
16	 7	 0	 x	 LineStimuli//4.3/stimNo128r0c0v4.3.jpg	 r	 1.884	 GoodTrial	 4.3	 bl
17	 7	 0	 x	 LineStimuli//4.3/stimNo131r0c0v4.3.jpg	 r	 2.103	 GoodTrial	 4.3	 bl
18	 7	 1	 left	 LineStimuli//4.3/stimNo83r4c2v4.3.jpg	 l	 1.739	 GoodTrial	 4.3	 bl
19	 7	 1	 left	 LineStimuli//4.3/stimNo111r10c9v4.3.jpg	 l	 2.098	 GoodTrial	 4.3	 bl
20	 7	 0	 x	 LineStimuli//4.3/stimNo132r0c0v4.3.jpg	 r	 2.267	 GoodTrial	 4.3	 bl
21	 7	 1	 right	 LineStimuli//4.3/stimNo114r10c15v4.3.jpg	 l	 1.836	 GoodTrial	 4.3	 bl
22	 7	 1	 left	 LineStimuli//4.3/stimNo95r11c9v4.3.jpg	 l	 1.683	 GoodTrial	 4.3	 bl
23	 7	 1	 left	 LineStimuli//4.3/stimNo110r6c7v4.3.jpg	 l	 1.606	 GoodTrial	 4.3	 bl
24	 7	 1	 left	 LineStimuli//4.3/stimNo103r10c4v4.3.jpg	 l	 1.598	 GoodTrial	 4.3	 bl
25	 7	 0	 x	 LineStimuli//4.3/stimNo130r0c0v4.3.jpg	 r	 2.005	 GoodTrial	 4.3	 bl
26	 7	 0	 x	 LineStimuli//4.3/stimNo151r0c0v4.3.jpg	 r	 1.986	 GoodTrial	 4.3	 bl
27	 7	 0	 x	 LineStimuli//4.3/stimNo145r0c0v4.3.jpg	 r	 1.863	 GoodTrial	 4.3	 bl
28	 7	 0	 x	 LineStimuli//4.3/stimNo154r0c0v4.3.jpg	 r	 1.973	 GoodTrial	 4.3	 bl
29	 7	 0	 x	 LineStimuli//4.3/stimNo144r0c0v4.3.jpg	 r	 2.164	 GoodTrial	 4.3	 bl
30	 7	 1	 right	 LineStimuli//4.3/stimNo116r5c13v4.3.jpg	 l	 1.812	 GoodTrial	 4.3	 bl
31	 7	 0	 x	 LineStimuli//4.3/stimNo156r0c0v4.3.jpg	 r	 1.886	 GoodTrial	 4.3	 bl
32	 7	 0	 x	 LineStimuli//4.3/stimNo134r0c0v4.3.jpg	 r	 2.694	 GoodTrial	 4.3	 bl
33	 7	 0	 x	 LineStimuli//4.3/stimNo159r0c0v4.3.jpg	 r	 2.022	 GoodTrial	 4.3	 bl
34	 7	 0	 x	 LineStimuli//4.3/stimNo152r0c0v4.3.jpg	 r	 1.953	 GoodTrial	 4.3	 bl
35	 7	 0	 x	 LineStimuli//4.3/stimNo125r0c0v4.3.jpg	 r	 2.099	 GoodTrial	 4.3	 bl
36	 7	 1	 left	 LineStimuli//4.3/stimNo105r14c6v4.3.jpg	 l	 1.750	 GoodTrial	 4.3	 bl
37	 7	 0	 x	 LineStimuli//4.3/stimNo153r0c0v4.3.jpg	 r	 2.033	 GoodTrial	 4.3	 bl
38	 7	 0	 x	 LineStimuli//4.3/stimNo141r0c0v4.3.jpg	 r	 2.177	 GoodTrial	 4.3	 bl
39	 7	 1	 left	 LineStimuli//4.3/stimNo86r7c3v4.3.jpg	 l	 1.791	 GoodTrial	 4.3	 bl
40	 7	 1	 right	 LineStimuli//4.3/stimNo115r10c18v4.3.jpg	 l	 1.761	 GoodTrial	 4.3	 bl
41	 7	 1	 right	 LineStimuli//4.3/stimNo89r3c17v4.3.jpg	 l	 1.708	 GoodTrial	 4.3	 bl
42	 7	 0	 x	 LineStimuli//4.3/stimNo124r0c0v4.3.jpg	 r	 2.259	 GoodTrial	 4.3	 bl
43	 7	 0	 x	 LineStimuli//4.3/stimNo140r0c0v4.3.jpg	 r	 2.108	 GoodTrial	 4.3	 bl
44	 7	 0	 x	 LineStimuli//4.3/stimNo142r0c0v4.3.jpg	 r	 2.062	 GoodTrial	 4.3	 bl
45	 7	 1	 left	 LineStimuli//4.3/stimNo88r10c3v4.3.jpg	 l	 1.671	 GoodTrial	 4.3	 bl
46	 7	 0	 x	 LineStimuli//4.3/stimNo129r0c0v4.3.jpg	 r	 1.969	 GoodTrial	 4.3	 bl
47	 7	 0	 x	 LineStimuli//4.3/stimNo160r0c0v4.3.jpg	 r	 1.810	 GoodTrial	 4.3	 bl
48	 7	 0	 x	 LineStimuli//4.3/stimNo157r0c0v4.3.jpg	 r	 1.750	 GoodTrial	 4.3	 bl
49	 7	 1	 right	 LineStimuli//4.3/stimNo112r10c16v4.3.jpg	 l	 1.716	 GoodTrial	 4.3	 bl
50	 7	 0	 x	 LineStimuli//4.3/stimNo147r0c0v4.3.jpg	 r	 1.993	 GoodTrial	 4.3	 bl
