Trial	Block	Target_pr	Target_side	Name	Key	RT	Message	Block_Type	Condition
1	 1	 1	 right	 LineStimuli//3.3/stimNo116r10c14v3.3.jpg	 l	 5.934	 GoodTrial	 3.3	 bl
2	 1	 1	 right	 LineStimuli//3.3/stimNo120r8c14v3.3.jpg	 l	 1.633	 GoodTrial	 3.3	 bl
3	 1	 0	 x	 LineStimuli//3.3/stimNo159r0c0v3.3.jpg	 r	 2.199	 GoodTrial	 3.3	 bl
4	 1	 1	 left	 LineStimuli//3.3/stimNo81r15c8v3.3.jpg	 l	 1.849	 GoodTrial	 3.3	 bl
5	 1	 0	 x	 LineStimuli//3.3/stimNo146r0c0v3.3.jpg	 r	 3.240	 GoodTrial	 3.3	 bl
6	 1	 1	 left	 LineStimuli//3.3/stimNo104r4c4v3.3.jpg	 l	 1.627	 GoodTrial	 3.3	 bl
7	 1	 1	 left	 LineStimuli//3.3/stimNo92r10c7v3.3.jpg	 l	 1.774	 GoodTrial	 3.3	 bl
8	 1	 1	 right	 LineStimuli//3.3/stimNo89r5c21v3.3.jpg	 l	 1.553	 GoodTrial	 3.3	 bl
9	 1	 1	 right	 LineStimuli//3.3/stimNo96r8c18v3.3.jpg	 l	 1.487	 GoodTrial	 3.3	 bl
10	 1	 0	 x	 LineStimuli//3.3/stimNo129r0c0v3.3.jpg	 r	 2.448	 GoodTrial	 3.3	 bl
11	 1	 1	 left	 LineStimuli//3.3/stimNo90r2c9v3.3.jpg	 l	 1.638	 GoodTrial	 3.3	 bl
12	 1	 0	 x	 LineStimuli//3.3/stimNo156r0c0v3.3.jpg	 r	 3.282	 GoodTrial	 3.3	 bl
13	 1	 0	 x	 LineStimuli//3.3/stimNo136r0c0v3.3.jpg	 r	 3.137	 GoodTrial	 3.3	 bl
14	 1	 1	 left	 LineStimuli//3.3/stimNo109r15c7v3.3.jpg	 l	 1.605	 GoodTrial	 3.3	 bl
15	 1	 1	 left	 LineStimuli//3.3/stimNo115r3c4v3.3.jpg	 l	 1.587	 GoodTrial	 3.3	 bl
16	 1	 1	 left	 LineStimuli//3.3/stimNo94r14c9v3.3.jpg	 l	 1.680	 GoodTrial	 3.3	 bl
17	 1	 1	 right	 LineStimuli//3.3/stimNo102r13c13v3.3.jpg	 l	 1.527	 GoodTrial	 3.3	 bl
18	 1	 0	 x	 LineStimuli//3.3/stimNo130r0c0v3.3.jpg	 r	 2.590	 GoodTrial	 3.3	 bl
19	 1	 0	 x	 LineStimuli//3.3/stimNo141r0c0v3.3.jpg	 r	 2.619	 GoodTrial	 3.3	 bl
20	 1	 1	 right	 LineStimuli//3.3/stimNo112r5c15v3.3.jpg	 l	 1.662	 GoodTrial	 3.3	 bl
21	 1	 0	 x	 LineStimuli//3.3/stimNo137r0c0v3.3.jpg	 r	 3.552	 GoodTrial	 3.3	 bl
22	 1	 0	 x	 LineStimuli//3.3/stimNo124r0c0v3.3.jpg	 r	 2.928	 GoodTrial	 3.3	 bl
23	 1	 0	 x	 LineStimuli//3.3/stimNo143r0c0v3.3.jpg	 r	 2.869	 GoodTrial	 3.3	 bl
24	 1	 1	 right	 LineStimuli//3.3/stimNo87r15c13v3.3.jpg	 l	 1.726	 GoodTrial	 3.3	 bl
25	 1	 0	 x	 LineStimuli//3.3/stimNo121r0c0v3.3.jpg	 r	 2.417	 GoodTrial	 3.3	 bl
26	 1	 0	 x	 LineStimuli//3.3/stimNo142r0c0v3.3.jpg	 r	 3.275	 GoodTrial	 3.3	 bl
27	 1	 1	 right	 LineStimuli//3.3/stimNo98r4c21v3.3.jpg	 l	 1.718	 GoodTrial	 3.3	 bl
28	 1	 0	 x	 LineStimuli//3.3/stimNo131r0c0v3.3.jpg	 r	 2.900	 GoodTrial	 3.3	 bl
29	 1	 1	 left	 LineStimuli//3.3/stimNo103r6c6v3.3.jpg	 l	 1.553	 GoodTrial	 3.3	 bl
30	 1	 0	 x	 LineStimuli//3.3/stimNo152r0c0v3.3.jpg	 r	 3.106	 GoodTrial	 3.3	 bl
31	 1	 0	 x	 LineStimuli//3.3/stimNo144r0c0v3.3.jpg	 r	 3.176	 GoodTrial	 3.3	 bl
32	 1	 0	 x	 LineStimuli//3.3/stimNo138r0c0v3.3.jpg	 r	 2.008	 GoodTrial	 3.3	 bl
33	 1	 1	 left	 LineStimuli//3.3/stimNo83r8c3v3.3.jpg	 l	 1.573	 GoodTrial	 3.3	 bl
34	 1	 0	 x	 LineStimuli//3.3/stimNo157r0c0v3.3.jpg	 r	 2.287	 GoodTrial	 3.3	 bl
35	 1	 0	 x	 LineStimuli//3.3/stimNo127r0c0v3.3.jpg	 r	 2.431	 GoodTrial	 3.3	 bl
36	 1	 1	 left	 LineStimuli//3.3/stimNo85r6c4v3.3.jpg	 l	 1.580	 GoodTrial	 3.3	 bl
37	 1	 0	 x	 LineStimuli//3.3/stimNo128r0c0v3.3.jpg	 r	 2.727	 GoodTrial	 3.3	 bl
38	 1	 1	 left	 LineStimuli//3.3/stimNo117r2c5v3.3.jpg	 l	 1.504	 GoodTrial	 3.3	 bl
39	 1	 0	 x	 LineStimuli//3.3/stimNo125r0c0v3.3.jpg	 r	 3.006	 GoodTrial	 3.3	 bl
40	 1	 1	 left	 LineStimuli//3.3/stimNo111r15c7v3.3.jpg	 l	 1.563	 GoodTrial	 3.3	 bl
41	 1	 1	 right	 LineStimuli//3.3/stimNo105r7c20v3.3.jpg	 l	 1.637	 GoodTrial	 3.3	 bl
42	 1	 1	 left	 LineStimuli//3.3/stimNo86r5c7v3.3.jpg	 l	 1.673	 GoodTrial	 3.3	 bl
43	 1	 1	 left	 LineStimuli//3.3/stimNo100r3c3v3.3.jpg	 l	 1.581	 GoodTrial	 3.3	 bl
44	 1	 0	 x	 LineStimuli//3.3/stimNo140r0c0v3.3.jpg	 r	 2.168	 GoodTrial	 3.3	 bl
45	 1	 0	 x	 LineStimuli//3.3/stimNo133r0c0v3.3.jpg	 r	 2.272	 GoodTrial	 3.3	 bl
46	 1	 1	 left	 LineStimuli//3.3/stimNo95r15c8v3.3.jpg	 l	 1.731	 GoodTrial	 3.3	 bl
47	 1	 1	 right	 LineStimuli//3.3/stimNo114r11c21v3.3.jpg	 l	 1.721	 GoodTrial	 3.3	 bl
48	 1	 0	 x	 LineStimuli//3.3/stimNo155r0c0v3.3.jpg	 r	 2.415	 GoodTrial	 3.3	 bl
49	 1	 0	 x	 LineStimuli//3.3/stimNo147r0c0v3.3.jpg	 r	 2.686	 GoodTrial	 3.3	 bl
50	 1	 0	 x	 LineStimuli//3.3/stimNo122r0c0v3.3.jpg	 r	 2.563	 GoodTrial	 3.3	 bl
1	 2	 0	 x	 LineStimuli//2.3/stimNo129r0c0v2.3.jpg	 r	 2.943	 GoodTrial	 2.3	 bl
2	 2	 0	 x	 LineStimuli//2.3/stimNo146r0c0v2.3.jpg	 r	 2.992	 GoodTrial	 2.3	 bl
3	 2	 0	 x	 LineStimuli//2.3/stimNo125r0c0v2.3.jpg	 r	 1.963	 GoodTrial	 2.3	 bl
4	 2	 0	 x	 LineStimuli//2.3/stimNo136r0c0v2.3.jpg	 r	 1.987	 GoodTrial	 2.3	 bl
5	 2	 0	 x	 LineStimuli//2.3/stimNo154r0c0v2.3.jpg	 r	 6.515	 GoodTrial	 2.3	 bl
6	 2	 1	 right	 LineStimuli//2.3/stimNo91r11c20v2.3.jpg	 r	 2.840	 GoodTrial	 2.3	 bl
7	 2	 0	 x	 LineStimuli//2.3/stimNo158r0c0v2.3.jpg	 r	 5.553	 GoodTrial	 2.3	 bl
8	 2	 1	 left	 LineStimuli//2.3/stimNo112r3c2v2.3.jpg	 l	 1.804	 GoodTrial	 2.3	 bl
9	 2	 0	 x	 LineStimuli//2.3/stimNo137r0c0v2.3.jpg	 r	 5.657	 GoodTrial	 2.3	 bl
10	 2	 1	 right	 LineStimuli//2.3/stimNo98r12c21v2.3.jpg	 l	 1.705	 GoodTrial	 2.3	 bl
11	 2	 1	 right	 LineStimuli//2.3/stimNo93r4c16v2.3.jpg	 l	 2.002	 GoodTrial	 2.3	 bl
12	 2	 0	 x	 LineStimuli//2.3/stimNo153r0c0v2.3.jpg	 r	 5.185	 GoodTrial	 2.3	 bl
13	 2	 1	 right	 LineStimuli//2.3/stimNo85r4c15v2.3.jpg	 l	 1.689	 GoodTrial	 2.3	 bl
14	 2	 1	 right	 LineStimuli//2.3/stimNo102r6c18v2.3.jpg	 l	 1.634	 GoodTrial	 2.3	 bl
15	 2	 0	 x	 LineStimuli//2.3/stimNo141r0c0v2.3.jpg	 r	 3.124	 GoodTrial	 2.3	 bl
16	 2	 1	 left	 LineStimuli//2.3/stimNo106r9c9v2.3.jpg	 l	 1.802	 GoodTrial	 2.3	 bl
17	 2	 1	 right	 LineStimuli//2.3/stimNo101r8c14v2.3.jpg	 l	 1.703	 GoodTrial	 2.3	 bl
18	 2	 0	 x	 LineStimuli//2.3/stimNo139r0c0v2.3.jpg	 r	 5.587	 GoodTrial	 2.3	 bl
19	 2	 1	 left	 LineStimuli//2.3/stimNo81r4c3v2.3.jpg	 l	 1.603	 GoodTrial	 2.3	 bl
20	 2	 0	 x	 LineStimuli//2.3/stimNo133r0c0v2.3.jpg	 r	 3.095	 GoodTrial	 2.3	 bl
21	 2	 1	 right	 LineStimuli//2.3/stimNo120r4c17v2.3.jpg	 l	 1.605	 GoodTrial	 2.3	 bl
22	 2	 0	 x	 LineStimuli//2.3/stimNo128r0c0v2.3.jpg	 r	 2.554	 GoodTrial	 2.3	 bl
23	 2	 1	 left	 LineStimuli//2.3/stimNo117r11c8v2.3.jpg	 l	 2.418	 GoodTrial	 2.3	 bl
24	 2	 1	 left	 LineStimuli//2.3/stimNo108r15c6v2.3.jpg	 l	 1.668	 GoodTrial	 2.3	 bl
25	 2	 0	 x	 LineStimuli//2.3/stimNo143r0c0v2.3.jpg	 r	 2.685	 GoodTrial	 2.3	 bl
26	 2	 0	 x	 LineStimuli//2.3/stimNo142r0c0v2.3.jpg	 r	 1.926	 GoodTrial	 2.3	 bl
27	 2	 0	 x	 LineStimuli//2.3/stimNo150r0c0v2.3.jpg	 r	 3.013	 GoodTrial	 2.3	 bl
28	 2	 1	 left	 LineStimuli//2.3/stimNo116r2c2v2.3.jpg	 l	 1.627	 GoodTrial	 2.3	 bl
29	 2	 1	 right	 LineStimuli//2.3/stimNo118r4c17v2.3.jpg	 l	 1.599	 GoodTrial	 2.3	 bl
30	 2	 1	 left	 LineStimuli//2.3/stimNo100r8c6v2.3.jpg	 l	 1.623	 GoodTrial	 2.3	 bl
31	 2	 1	 right	 LineStimuli//2.3/stimNo87r13c19v2.3.jpg	 l	 1.599	 GoodTrial	 2.3	 bl
32	 2	 1	 right	 LineStimuli//2.3/stimNo105r14c14v2.3.jpg	 l	 1.671	 GoodTrial	 2.3	 bl
33	 2	 0	 x	 LineStimuli//2.3/stimNo127r0c0v2.3.jpg	 r	 3.168	 GoodTrial	 2.3	 bl
34	 2	 0	 x	 LineStimuli//2.3/stimNo121r0c0v2.3.jpg	 r	 2.445	 GoodTrial	 2.3	 bl
35	 2	 1	 left	 LineStimuli//2.3/stimNo88r15c2v2.3.jpg	 l	 2.852	 GoodTrial	 2.3	 bl
36	 2	 1	 right	 LineStimuli//2.3/stimNo89r8c21v2.3.jpg	 l	 1.609	 GoodTrial	 2.3	 bl
37	 2	 0	 x	 LineStimuli//2.3/stimNo147r0c0v2.3.jpg	 r	 2.354	 GoodTrial	 2.3	 bl
38	 2	 1	 left	 LineStimuli//2.3/stimNo94r8c9v2.3.jpg	 l	 1.711	 GoodTrial	 2.3	 bl
39	 2	 0	 x	 LineStimuli//2.3/stimNo155r0c0v2.3.jpg	 r	 4.281	 GoodTrial	 2.3	 bl
40	 2	 1	 left	 LineStimuli//2.3/stimNo113r3c8v2.3.jpg	 l	 1.773	 GoodTrial	 2.3	 bl
41	 2	 0	 x	 LineStimuli//2.3/stimNo122r0c0v2.3.jpg	 r	 2.664	 GoodTrial	 2.3	 bl
42	 2	 1	 right	 LineStimuli//2.3/stimNo99r2c13v2.3.jpg	 l	 1.712	 GoodTrial	 2.3	 bl
43	 2	 1	 right	 LineStimuli//2.3/stimNo111r11c21v2.3.jpg	 l	 1.688	 GoodTrial	 2.3	 bl
44	 2	 1	 left	 LineStimuli//2.3/stimNo96r3c3v2.3.jpg	 l	 1.562	 GoodTrial	 2.3	 bl
45	 2	 0	 x	 LineStimuli//2.3/stimNo156r0c0v2.3.jpg	 r	 4.512	 GoodTrial	 2.3	 bl
46	 2	 1	 right	 LineStimuli//2.3/stimNo107r11c15v2.3.jpg	 l	 1.783	 GoodTrial	 2.3	 bl
47	 2	 0	 x	 LineStimuli//2.3/stimNo160r0c0v2.3.jpg	 r	 3.057	 GoodTrial	 2.3	 bl
48	 2	 0	 x	 LineStimuli//2.3/stimNo152r0c0v2.3.jpg	 r	 3.480	 GoodTrial	 2.3	 bl
49	 2	 1	 right	 LineStimuli//2.3/stimNo92r10c17v2.3.jpg	 l	 1.859	 GoodTrial	 2.3	 bl
50	 2	 1	 right	 LineStimuli//2.3/stimNo84r15c14v2.3.jpg	 l	 2.251	 GoodTrial	 2.3	 bl
1	 3	 1	 right	 LineStimuli//4.3/stimNo112r10c16v4.3.jpg	 l	 1.610	 GoodTrial	 4.3	 bl
2	 3	 1	 right	 LineStimuli//4.3/stimNo82r7c18v4.3.jpg	 l	 1.562	 GoodTrial	 4.3	 bl
3	 3	 1	 left	 LineStimuli//4.3/stimNo95r11c9v4.3.jpg	 l	 1.552	 GoodTrial	 4.3	 bl
4	 3	 0	 x	 LineStimuli//4.3/stimNo135r0c0v4.3.jpg	 r	 2.723	 GoodTrial	 4.3	 bl
5	 3	 0	 x	 LineStimuli//4.3/stimNo124r0c0v4.3.jpg	 r	 2.730	 GoodTrial	 4.3	 bl
6	 3	 1	 right	 LineStimuli//4.3/stimNo97r6c21v4.3.jpg	 l	 1.516	 GoodTrial	 4.3	 bl
7	 3	 1	 right	 LineStimuli//4.3/stimNo115r10c18v4.3.jpg	 l	 1.500	 GoodTrial	 4.3	 bl
8	 3	 1	 left	 LineStimuli//4.3/stimNo104r15c2v4.3.jpg	 l	 1.734	 GoodTrial	 4.3	 bl
9	 3	 0	 x	 LineStimuli//4.3/stimNo150r0c0v4.3.jpg	 r	 2.673	 GoodTrial	 4.3	 bl
10	 3	 1	 left	 LineStimuli//4.3/stimNo85r3c5v4.3.jpg	 l	 1.511	 GoodTrial	 4.3	 bl
11	 3	 1	 right	 LineStimuli//4.3/stimNo92r2c20v4.3.jpg	 l	 1.558	 GoodTrial	 4.3	 bl
12	 3	 0	 x	 LineStimuli//4.3/stimNo142r0c0v4.3.jpg	 r	 2.260	 GoodTrial	 4.3	 bl
13	 3	 0	 x	 LineStimuli//4.3/stimNo132r0c0v4.3.jpg	 r	 1.851	 GoodTrial	 4.3	 bl
14	 3	 0	 x	 LineStimuli//4.3/stimNo133r0c0v4.3.jpg	 r	 2.496	 GoodTrial	 4.3	 bl
15	 3	 0	 x	 LineStimuli//4.3/stimNo130r0c0v4.3.jpg	 r	 2.560	 GoodTrial	 4.3	 bl
16	 3	 1	 right	 LineStimuli//4.3/stimNo109r15c15v4.3.jpg	 l	 1.655	 GoodTrial	 4.3	 bl
17	 3	 0	 x	 LineStimuli//4.3/stimNo156r0c0v4.3.jpg	 r	 2.807	 GoodTrial	 4.3	 bl
18	 3	 1	 left	 LineStimuli//4.3/stimNo105r14c6v4.3.jpg	 l	 1.587	 GoodTrial	 4.3	 bl
19	 3	 1	 left	 LineStimuli//4.3/stimNo100r8c3v4.3.jpg	 l	 1.663	 GoodTrial	 4.3	 bl
20	 3	 1	 left	 LineStimuli//4.3/stimNo101r5c5v4.3.jpg	 l	 1.801	 GoodTrial	 4.3	 bl
21	 3	 1	 right	 LineStimuli//4.3/stimNo99r14c18v4.3.jpg	 l	 1.601	 GoodTrial	 4.3	 bl
22	 3	 1	 right	 LineStimuli//4.3/stimNo102r10c19v4.3.jpg	 l	 1.543	 GoodTrial	 4.3	 bl
23	 3	 0	 x	 LineStimuli//4.3/stimNo141r0c0v4.3.jpg	 r	 2.049	 GoodTrial	 4.3	 bl
24	 3	 0	 x	 LineStimuli//4.3/stimNo152r0c0v4.3.jpg	 r	 1.956	 GoodTrial	 4.3	 bl
25	 3	 0	 x	 LineStimuli//4.3/stimNo129r0c0v4.3.jpg	 r	 2.038	 GoodTrial	 4.3	 bl
26	 3	 0	 x	 LineStimuli//4.3/stimNo126r0c0v4.3.jpg	 r	 1.859	 GoodTrial	 4.3	 bl
27	 3	 0	 x	 LineStimuli//4.3/stimNo134r0c0v4.3.jpg	 r	 2.025	 GoodTrial	 4.3	 bl
28	 3	 1	 left	 LineStimuli//4.3/stimNo103r10c4v4.3.jpg	 l	 1.572	 GoodTrial	 4.3	 bl
29	 3	 1	 right	 LineStimuli//4.3/stimNo81r10c14v4.3.jpg	 l	 1.763	 GoodTrial	 4.3	 bl
30	 3	 0	 x	 LineStimuli//4.3/stimNo125r0c0v4.3.jpg	 r	 1.876	 GoodTrial	 4.3	 bl
31	 3	 1	 right	 LineStimuli//4.3/stimNo94r12c13v4.3.jpg	 l	 1.803	 GoodTrial	 4.3	 bl
32	 3	 1	 right	 LineStimuli//4.3/stimNo120r8c18v4.3.jpg	 l	 1.493	 GoodTrial	 4.3	 bl
33	 3	 1	 left	 LineStimuli//4.3/stimNo107r2c8v4.3.jpg	 l	 1.647	 GoodTrial	 4.3	 bl
34	 3	 0	 x	 LineStimuli//4.3/stimNo157r0c0v4.3.jpg	 r	 2.542	 GoodTrial	 4.3	 bl
35	 3	 0	 x	 LineStimuli//4.3/stimNo159r0c0v4.3.jpg	 r	 2.312	 GoodTrial	 4.3	 bl
36	 3	 1	 right	 LineStimuli//4.3/stimNo89r3c17v4.3.jpg	 l	 1.594	 GoodTrial	 4.3	 bl
37	 3	 1	 left	 LineStimuli//4.3/stimNo90r10c4v4.3.jpg	 l	 1.634	 GoodTrial	 4.3	 bl
38	 3	 0	 x	 LineStimuli//4.3/stimNo158r0c0v4.3.jpg	 r	 1.978	 GoodTrial	 4.3	 bl
39	 3	 0	 x	 LineStimuli//4.3/stimNo131r0c0v4.3.jpg	 r	 2.201	 GoodTrial	 4.3	 bl
40	 3	 0	 x	 LineStimuli//4.3/stimNo128r0c0v4.3.jpg	 r	 2.014	 GoodTrial	 4.3	 bl
41	 3	 0	 x	 LineStimuli//4.3/stimNo154r0c0v4.3.jpg	 r	 1.789	 GoodTrial	 4.3	 bl
42	 3	 1	 left	 LineStimuli//4.3/stimNo98r3c8v4.3.jpg	 l	 1.500	 GoodTrial	 4.3	 bl
43	 3	 1	 left	 LineStimuli//4.3/stimNo93r9c9v4.3.jpg	 l	 1.664	 GoodTrial	 4.3	 bl
44	 3	 1	 left	 LineStimuli//4.3/stimNo83r4c2v4.3.jpg	 l	 1.573	 GoodTrial	 4.3	 bl
45	 3	 1	 left	 LineStimuli//4.3/stimNo110r6c7v4.3.jpg	 l	 3.071	 GoodTrial	 4.3	 bl
46	 3	 0	 x	 LineStimuli//4.3/stimNo153r0c0v4.3.jpg	 r	 1.966	 GoodTrial	 4.3	 bl
47	 3	 1	 left	 LineStimuli//4.3/stimNo111r10c9v4.3.jpg	 l	 1.782	 GoodTrial	 4.3	 bl
48	 3	 1	 right	 LineStimuli//4.3/stimNo96r4c19v4.3.jpg	 l	 1.628	 GoodTrial	 4.3	 bl
49	 3	 0	 x	 LineStimuli//4.3/stimNo149r0c0v4.3.jpg	 r	 2.127	 GoodTrial	 4.3	 bl
50	 3	 0	 x	 LineStimuli//4.3/stimNo140r0c0v4.3.jpg	 r	 1.651	 GoodTrial	 4.3	 bl
1	 4	 1	 right	 LineStimuli//2.8/stimNo109r6c18v2.8.jpg	 l	 1.838	 GoodTrial	 2.8	 bl
2	 4	 1	 right	 LineStimuli//2.8/stimNo106r13c20v2.8.jpg	 l	 1.802	 GoodTrial	 2.8	 bl
3	 4	 1	 right	 LineStimuli//2.8/stimNo85r4c15v2.8.jpg	 l	 1.454	 GoodTrial	 2.8	 bl
4	 4	 0	 x	 LineStimuli//2.8/stimNo129r0c0v2.8.jpg	 r	 2.504	 GoodTrial	 2.8	 bl
5	 4	 0	 x	 LineStimuli//2.8/stimNo149r0c0v2.8.jpg	 r	 1.751	 GoodTrial	 2.8	 bl
6	 4	 1	 right	 LineStimuli//2.8/stimNo114r8c19v2.8.jpg	 l	 1.555	 GoodTrial	 2.8	 bl
7	 4	 0	 x	 LineStimuli//2.8/stimNo148r0c0v2.8.jpg	 r	 2.715	 GoodTrial	 2.8	 bl
8	 4	 0	 x	 LineStimuli//2.8/stimNo135r0c0v2.8.jpg	 r	 3.530	 GoodTrial	 2.8	 bl
9	 4	 0	 x	 LineStimuli//2.8/stimNo138r0c0v2.8.jpg	 r	 3.122	 GoodTrial	 2.8	 bl
10	 4	 0	 x	 LineStimuli//2.8/stimNo139r0c0v2.8.jpg	 r	 3.135	 GoodTrial	 2.8	 bl
11	 4	 1	 right	 LineStimuli//2.8/stimNo118r5c16v2.8.jpg	 l	 1.533	 GoodTrial	 2.8	 bl
12	 4	 1	 left	 LineStimuli//2.8/stimNo94r13c7v2.8.jpg	 l	 1.611	 GoodTrial	 2.8	 bl
13	 4	 1	 right	 LineStimuli//2.8/stimNo92r14c21v2.8.jpg	 l	 2.193	 GoodTrial	 2.8	 bl
14	 4	 0	 x	 LineStimuli//2.8/stimNo153r0c0v2.8.jpg	 r	 2.790	 GoodTrial	 2.8	 bl
15	 4	 1	 left	 LineStimuli//2.8/stimNo87r11c8v2.8.jpg	 l	 1.680	 GoodTrial	 2.8	 bl
16	 4	 0	 x	 LineStimuli//2.8/stimNo140r0c0v2.8.jpg	 r	 4.025	 GoodTrial	 2.8	 bl
17	 4	 0	 x	 LineStimuli//2.8/stimNo146r0c0v2.8.jpg	 r	 3.388	 GoodTrial	 2.8	 bl
18	 4	 1	 left	 LineStimuli//2.8/stimNo119r8c5v2.8.jpg	 l	 1.677	 GoodTrial	 2.8	 bl
19	 4	 1	 left	 LineStimuli//2.8/stimNo105r5c4v2.8.jpg	 l	 1.524	 GoodTrial	 2.8	 bl
20	 4	 1	 left	 LineStimuli//2.8/stimNo88r15c3v2.8.jpg	 l	 1.708	 GoodTrial	 2.8	 bl
21	 4	 0	 x	 LineStimuli//2.8/stimNo156r0c0v2.8.jpg	 r	 2.201	 GoodTrial	 2.8	 bl
22	 4	 0	 x	 LineStimuli//2.8/stimNo145r0c0v2.8.jpg	 r	 1.793	 GoodTrial	 2.8	 bl
23	 4	 0	 x	 LineStimuli//2.8/stimNo144r0c0v2.8.jpg	 r	 2.398	 GoodTrial	 2.8	 bl
24	 4	 0	 x	 LineStimuli//2.8/stimNo152r0c0v2.8.jpg	 r	 2.166	 GoodTrial	 2.8	 bl
25	 4	 1	 left	 LineStimuli//2.8/stimNo107r5c6v2.8.jpg	 l	 1.516	 GoodTrial	 2.8	 bl
26	 4	 0	 x	 LineStimuli//2.8/stimNo132r0c0v2.8.jpg	 r	 2.933	 GoodTrial	 2.8	 bl
27	 4	 0	 x	 LineStimuli//2.8/stimNo151r0c0v2.8.jpg	 r	 5.894	 GoodTrial	 2.8	 bl
28	 4	 0	 x	 LineStimuli//2.8/stimNo147r0c0v2.8.jpg	 r	 4.011	 GoodTrial	 2.8	 bl
29	 4	 1	 left	 LineStimuli//2.8/stimNo96r6c9v2.8.jpg	 l	 1.819	 GoodTrial	 2.8	 bl
30	 4	 1	 left	 LineStimuli//2.8/stimNo97r11c4v2.8.jpg	 l	 1.769	 GoodTrial	 2.8	 bl
31	 4	 0	 x	 LineStimuli//2.8/stimNo131r0c0v2.8.jpg	 r	 2.131	 GoodTrial	 2.8	 bl
32	 4	 0	 x	 LineStimuli//2.8/stimNo155r0c0v2.8.jpg	 r	 1.717	 GoodTrial	 2.8	 bl
33	 4	 1	 left	 LineStimuli//2.8/stimNo113r9c5v2.8.jpg	 l	 1.523	 GoodTrial	 2.8	 bl
34	 4	 1	 left	 LineStimuli//2.8/stimNo108r13c6v2.8.jpg	 l	 1.649	 GoodTrial	 2.8	 bl
35	 4	 1	 right	 LineStimuli//2.8/stimNo93r9c20v2.8.jpg	 l	 1.780	 GoodTrial	 2.8	 bl
36	 4	 1	 left	 LineStimuli//2.8/stimNo98r15c2v2.8.jpg	 l	 2.057	 GoodTrial	 2.8	 bl
37	 4	 0	 x	 LineStimuli//2.8/stimNo134r0c0v2.8.jpg	 r	 3.530	 GoodTrial	 2.8	 bl
38	 4	 1	 left	 LineStimuli//2.8/stimNo91r2c3v2.8.jpg	 l	 1.562	 GoodTrial	 2.8	 bl
39	 4	 1	 right	 LineStimuli//2.8/stimNo99r9c18v2.8.jpg	 l	 1.649	 GoodTrial	 2.8	 bl
40	 4	 0	 x	 LineStimuli//2.8/stimNo160r0c0v2.8.jpg	 r	 2.943	 GoodTrial	 2.8	 bl
41	 4	 1	 right	 LineStimuli//2.8/stimNo81r8c14v2.8.jpg	 l	 1.674	 GoodTrial	 2.8	 bl
42	 4	 1	 right	 LineStimuli//2.8/stimNo95r9c18v2.8.jpg	 l	 1.606	 GoodTrial	 2.8	 bl
43	 4	 0	 x	 LineStimuli//2.8/stimNo141r0c0v2.8.jpg	 r	 2.240	 GoodTrial	 2.8	 bl
44	 4	 1	 left	 LineStimuli//2.8/stimNo104r8c6v2.8.jpg	 l	 1.540	 GoodTrial	 2.8	 bl
45	 4	 0	 x	 LineStimuli//2.8/stimNo143r0c0v2.8.jpg	 r	 2.023	 GoodTrial	 2.8	 bl
46	 4	 1	 right	 LineStimuli//2.8/stimNo115r9c14v2.8.jpg	 l	 1.694	 GoodTrial	 2.8	 bl
47	 4	 0	 x	 LineStimuli//2.8/stimNo142r0c0v2.8.jpg	 r	 2.189	 GoodTrial	 2.8	 bl
48	 4	 1	 right	 LineStimuli//2.8/stimNo110r7c14v2.8.jpg	 l	 1.544	 GoodTrial	 2.8	 bl
49	 4	 0	 x	 LineStimuli//2.8/stimNo127r0c0v2.8.jpg	 r	 2.475	 GoodTrial	 2.8	 bl
50	 4	 0	 x	 LineStimuli//2.8/stimNo123r0c0v2.8.jpg	 r	 2.568	 GoodTrial	 2.8	 bl
1	 5	 1	 right	 LineStimuli//1.8/stimNo119r3c21v1.8.jpg	 l	 2.208	 GoodTrial	 1.8	 bl
2	 5	 0	 x	 LineStimuli//1.8/stimNo141r0c0v1.8.jpg	 r	 5.915	 GoodTrial	 1.8	 bl
3	 5	 0	 x	 LineStimuli//1.8/stimNo137r0c0v1.8.jpg	 r	 5.442	 GoodTrial	 1.8	 bl
4	 5	 0	 x	 LineStimuli//1.8/stimNo142r0c0v1.8.jpg	 r	 6.260	 GoodTrial	 1.8	 bl
5	 5	 1	 left	 LineStimuli//1.8/stimNo94r13c8v1.8.jpg	 r	 5.282	 GoodTrial	 1.8	 bl
6	 5	 1	 left	 LineStimuli//1.8/stimNo103r15c10v1.8.jpg	 l	 7.841	 GoodTrial	 1.8	 bl
7	 5	 1	 left	 LineStimuli//1.8/stimNo89r11c6v1.8.jpg	 r	 15.365	 GoodTrial	 1.8	 bl
8	 5	 1	 left	 LineStimuli//1.8/stimNo87r14c2v1.8.jpg	 r	 12.675	 GoodTrial	 1.8	 bl
9	 5	 0	 x	 LineStimuli//1.8/stimNo149r0c0v1.8.jpg	 r	 10.424	 GoodTrial	 1.8	 bl
10	 5	 0	 x	 LineStimuli//1.8/stimNo139r0c0v1.8.jpg	 r	 17.442	 GoodTrial	 1.8	 bl
11	 5	 1	 left	 LineStimuli//1.8/stimNo106r13c9v1.8.jpg	 l	 6.470	 GoodTrial	 1.8	 bl
12	 5	 1	 right	 LineStimuli//1.8/stimNo112r6c15v1.8.jpg	 l	 2.605	 GoodTrial	 1.8	 bl
13	 5	 1	 left	 LineStimuli//1.8/stimNo96r13c2v1.8.jpg	 l	 7.810	 GoodTrial	 1.8	 bl
14	 5	 1	 right	 LineStimuli//1.8/stimNo84r11c21v1.8.jpg	 r	 15.141	 GoodTrial	 1.8	 bl
15	 5	 1	 left	 LineStimuli//1.8/stimNo95r4c9v1.8.jpg	 l	 1.928	 GoodTrial	 1.8	 bl
16	 5	 1	 left	 LineStimuli//1.8/stimNo107r5c4v1.8.jpg	 l	 1.843	 GoodTrial	 1.8	 bl
17	 5	 0	 x	 LineStimuli//1.8/stimNo158r0c0v1.8.jpg	 r	 4.824	 GoodTrial	 1.8	 bl
18	 5	 1	 right	 LineStimuli//1.8/stimNo111r4c21v1.8.jpg	 l	 2.225	 GoodTrial	 1.8	 bl
19	 5	 0	 x	 LineStimuli//1.8/stimNo148r0c0v1.8.jpg	 r	 8.233	 GoodTrial	 1.8	 bl
20	 5	 1	 left	 LineStimuli//1.8/stimNo85r13c2v1.8.jpg	 l	 2.770	 GoodTrial	 1.8	 bl
21	 5	 0	 x	 LineStimuli//1.8/stimNo157r0c0v1.8.jpg	 r	 6.736	 GoodTrial	 1.8	 bl
22	 5	 1	 left	 LineStimuli//1.8/stimNo98r15c5v1.8.jpg	 l	 1.672	 GoodTrial	 1.8	 bl
23	 5	 0	 x	 LineStimuli//1.8/stimNo151r0c0v1.8.jpg	 r	 2.767	 GoodTrial	 1.8	 bl
24	 5	 1	 right	 LineStimuli//1.8/stimNo90r15c13v1.8.jpg	 l	 5.003	 GoodTrial	 1.8	 bl
25	 5	 0	 x	 LineStimuli//1.8/stimNo152r0c0v1.8.jpg	 r	 6.052	 GoodTrial	 1.8	 bl
26	 5	 0	 x	 LineStimuli//1.8/stimNo129r0c0v1.8.jpg	 r	 11.719	 GoodTrial	 1.8	 bl
27	 5	 1	 right	 LineStimuli//1.8/stimNo102r14c17v1.8.jpg	 l	 5.473	 GoodTrial	 1.8	 bl
28	 5	 1	 right	 LineStimuli//1.8/stimNo104r3c21v1.8.jpg	 l	 2.169	 GoodTrial	 1.8	 bl
29	 5	 1	 right	 LineStimuli//1.8/stimNo100r9c13v1.8.jpg	 r	 5.182	 GoodTrial	 1.8	 bl
30	 5	 1	 left	 LineStimuli//1.8/stimNo120r14c9v1.8.jpg	 x	 0.712	 EARLY_RESPONSE	 1.8	 bl
31	 5	 0	 x	 LineStimuli//1.8/stimNo126r0c0v1.8.jpg	 r	 8.408	 GoodTrial	 1.8	 bl
32	 5	 1	 right	 LineStimuli//1.8/stimNo114r8c13v1.8.jpg	 l	 2.045	 GoodTrial	 1.8	 bl
33	 5	 0	 x	 LineStimuli//1.8/stimNo138r0c0v1.8.jpg	 r	 4.806	 GoodTrial	 1.8	 bl
34	 5	 0	 x	 LineStimuli//1.8/stimNo127r0c0v1.8.jpg	 r	 4.782	 GoodTrial	 1.8	 bl
35	 5	 1	 right	 LineStimuli//1.8/stimNo83r6c13v1.8.jpg	 r	 4.457	 GoodTrial	 1.8	 bl
36	 5	 1	 left	 LineStimuli//1.8/stimNo81r6c8v1.8.jpg	 l	 3.092	 GoodTrial	 1.8	 bl
37	 5	 0	 x	 LineStimuli//1.8/stimNo132r0c0v1.8.jpg	 r	 7.454	 GoodTrial	 1.8	 bl
38	 5	 1	 left	 LineStimuli//1.8/stimNo88r15c9v1.8.jpg	 l	 2.215	 GoodTrial	 1.8	 bl
39	 5	 1	 left	 LineStimuli//1.8/stimNo91r14c4v1.8.jpg	 l	 1.658	 GoodTrial	 1.8	 bl
40	 5	 0	 x	 LineStimuli//1.8/stimNo146r0c0v1.8.jpg	 r	 9.058	 GoodTrial	 1.8	 bl
41	 5	 1	 right	 LineStimuli//1.8/stimNo101r4c13v1.8.jpg	 r	 4.992	 GoodTrial	 1.8	 bl
42	 5	 0	 x	 LineStimuli//1.8/stimNo128r0c0v1.8.jpg	 r	 3.776	 GoodTrial	 1.8	 bl
43	 5	 0	 x	 LineStimuli//1.8/stimNo155r0c0v1.8.jpg	 r	 5.078	 GoodTrial	 1.8	 bl
44	 5	 0	 x	 LineStimuli//1.8/stimNo150r0c0v1.8.jpg	 r	 3.137	 GoodTrial	 1.8	 bl
45	 5	 0	 x	 LineStimuli//1.8/stimNo153r0c0v1.8.jpg	 r	 2.776	 GoodTrial	 1.8	 bl
46	 5	 0	 x	 LineStimuli//1.8/stimNo124r0c0v1.8.jpg	 r	 3.958	 GoodTrial	 1.8	 bl
47	 5	 0	 x	 LineStimuli//1.8/stimNo122r0c0v1.8.jpg	 r	 6.334	 GoodTrial	 1.8	 bl
48	 5	 0	 x	 LineStimuli//1.8/stimNo123r0c0v1.8.jpg	 r	 4.997	 GoodTrial	 1.8	 bl
49	 5	 0	 x	 LineStimuli//1.8/stimNo130r0c0v1.8.jpg	 r	 4.489	 GoodTrial	 1.8	 bl
50	 5	 1	 left	 LineStimuli//1.8/stimNo110r4c7v1.8.jpg	 l	 1.691	 GoodTrial	 1.8	 bl
1	 6	 0	 x	 LineStimuli//1.5/stimNo131r0c0v1.5.jpg	 r	 6.432	 GoodTrial	 1.5	 bl
2	 6	 0	 x	 LineStimuli//1.5/stimNo134r0c0v1.5.jpg	 r	 7.256	 GoodTrial	 1.5	 bl
3	 6	 1	 right	 LineStimuli//1.5/stimNo84r3c18v1.5.jpg	 l	 1.884	 GoodTrial	 1.5	 bl
4	 6	 0	 x	 LineStimuli//1.5/stimNo121r0c0v1.5.jpg	 r	 2.959	 GoodTrial	 1.5	 bl
5	 6	 1	 left	 LineStimuli//1.5/stimNo88r6c7v1.5.jpg	 r	 4.270	 GoodTrial	 1.5	 bl
6	 6	 1	 left	 LineStimuli//1.5/stimNo109r8c6v1.5.jpg	 r	 3.897	 GoodTrial	 1.5	 bl
7	 6	 1	 right	 LineStimuli//1.5/stimNo81r6c17v1.5.jpg	 l	 2.036	 GoodTrial	 1.5	 bl
8	 6	 0	 x	 LineStimuli//1.5/stimNo149r0c0v1.5.jpg	 r	 5.645	 GoodTrial	 1.5	 bl
9	 6	 0	 x	 LineStimuli//1.5/stimNo154r0c0v1.5.jpg	 r	 5.991	 GoodTrial	 1.5	 bl
10	 6	 0	 x	 LineStimuli//1.5/stimNo130r0c0v1.5.jpg	 r	 3.812	 GoodTrial	 1.5	 bl
11	 6	 0	 x	 LineStimuli//1.5/stimNo136r0c0v1.5.jpg	 r	 6.322	 GoodTrial	 1.5	 bl
12	 6	 1	 right	 LineStimuli//1.5/stimNo100r6c20v1.5.jpg	 l	 1.759	 GoodTrial	 1.5	 bl
13	 6	 1	 left	 LineStimuli//1.5/stimNo99r10c3v1.5.jpg	 l	 1.889	 GoodTrial	 1.5	 bl
14	 6	 0	 x	 LineStimuli//1.5/stimNo148r0c0v1.5.jpg	 r	 2.731	 GoodTrial	 1.5	 bl
15	 6	 1	 left	 LineStimuli//1.5/stimNo120r14c2v1.5.jpg	 l	 1.884	 GoodTrial	 1.5	 bl
16	 6	 0	 x	 LineStimuli//1.5/stimNo124r0c0v1.5.jpg	 r	 3.395	 GoodTrial	 1.5	 bl
17	 6	 1	 left	 LineStimuli//1.5/stimNo106r3c7v1.5.jpg	 r	 2.516	 GoodTrial	 1.5	 bl
18	 6	 1	 right	 LineStimuli//1.5/stimNo103r13c17v1.5.jpg	 l	 3.017	 GoodTrial	 1.5	 bl
19	 6	 0	 x	 LineStimuli//1.5/stimNo160r0c0v1.5.jpg	 r	 4.462	 GoodTrial	 1.5	 bl
20	 6	 1	 right	 LineStimuli//1.5/stimNo95r6c14v1.5.jpg	 l	 1.996	 GoodTrial	 1.5	 bl
21	 6	 0	 x	 LineStimuli//1.5/stimNo128r0c0v1.5.jpg	 r	 4.544	 GoodTrial	 1.5	 bl
22	 6	 1	 right	 LineStimuli//1.5/stimNo98r8c21v1.5.jpg	 l	 1.941	 GoodTrial	 1.5	 bl
23	 6	 1	 left	 LineStimuli//1.5/stimNo83r12c7v1.5.jpg	 l	 2.093	 GoodTrial	 1.5	 bl
24	 6	 0	 x	 LineStimuli//1.5/stimNo155r0c0v1.5.jpg	 r	 6.657	 GoodTrial	 1.5	 bl
25	 6	 0	 x	 LineStimuli//1.5/stimNo151r0c0v1.5.jpg	 r	 4.998	 GoodTrial	 1.5	 bl
26	 6	 0	 x	 LineStimuli//1.5/stimNo146r0c0v1.5.jpg	 r	 4.721	 GoodTrial	 1.5	 bl
27	 6	 0	 x	 LineStimuli//1.5/stimNo123r0c0v1.5.jpg	 r	 3.871	 GoodTrial	 1.5	 bl
28	 6	 1	 left	 LineStimuli//1.5/stimNo102r7c6v1.5.jpg	 r	 3.073	 GoodTrial	 1.5	 bl
29	 6	 1	 right	 LineStimuli//1.5/stimNo101r5c20v1.5.jpg	 l	 4.108	 GoodTrial	 1.5	 bl
30	 6	 1	 left	 LineStimuli//1.5/stimNo114r4c4v1.5.jpg	 l	 1.968	 GoodTrial	 1.5	 bl
31	 6	 0	 x	 LineStimuli//1.5/stimNo157r0c0v1.5.jpg	 r	 3.164	 GoodTrial	 1.5	 bl
32	 6	 0	 x	 LineStimuli//1.5/stimNo143r0c0v1.5.jpg	 r	 3.809	 GoodTrial	 1.5	 bl
33	 6	 1	 right	 LineStimuli//1.5/stimNo105r3c18v1.5.jpg	 l	 1.976	 GoodTrial	 1.5	 bl
34	 6	 0	 x	 LineStimuli//1.5/stimNo150r0c0v1.5.jpg	 l	 4.529	 GoodTrial	 1.5	 bl
35	 6	 0	 x	 LineStimuli//1.5/stimNo140r0c0v1.5.jpg	 r	 4.128	 GoodTrial	 1.5	 bl
36	 6	 0	 x	 LineStimuli//1.5/stimNo126r0c0v1.5.jpg	 r	 3.531	 GoodTrial	 1.5	 bl
37	 6	 0	 x	 LineStimuli//1.5/stimNo127r0c0v1.5.jpg	 r	 3.656	 GoodTrial	 1.5	 bl
38	 6	 0	 x	 LineStimuli//1.5/stimNo141r0c0v1.5.jpg	 r	 3.957	 GoodTrial	 1.5	 bl
39	 6	 0	 x	 LineStimuli//1.5/stimNo147r0c0v1.5.jpg	 r	 3.078	 GoodTrial	 1.5	 bl
40	 6	 1	 left	 LineStimuli//1.5/stimNo94r10c6v1.5.jpg	 r	 5.457	 GoodTrial	 1.5	 bl
41	 6	 0	 x	 LineStimuli//1.5/stimNo156r0c0v1.5.jpg	 r	 5.966	 GoodTrial	 1.5	 bl
42	 6	 0	 x	 LineStimuli//1.5/stimNo158r0c0v1.5.jpg	 r	 7.067	 GoodTrial	 1.5	 bl
43	 6	 1	 right	 LineStimuli//1.5/stimNo118r9c20v1.5.jpg	 r	 6.011	 GoodTrial	 1.5	 bl
44	 6	 1	 left	 LineStimuli//1.5/stimNo116r7c7v1.5.jpg	 r	 5.928	 GoodTrial	 1.5	 bl
45	 6	 0	 x	 LineStimuli//1.5/stimNo133r0c0v1.5.jpg	 r	 10.551	 GoodTrial	 1.5	 bl
46	 6	 0	 x	 LineStimuli//1.5/stimNo139r0c0v1.5.jpg	 r	 6.050	 GoodTrial	 1.5	 bl
47	 6	 0	 x	 LineStimuli//1.5/stimNo152r0c0v1.5.jpg	 r	 6.053	 GoodTrial	 1.5	 bl
48	 6	 0	 x	 LineStimuli//1.5/stimNo137r0c0v1.5.jpg	 r	 4.439	 GoodTrial	 1.5	 bl
49	 6	 1	 left	 LineStimuli//1.5/stimNo89r8c9v1.5.jpg	 r	 2.605	 GoodTrial	 1.5	 bl
50	 6	 0	 x	 LineStimuli//1.5/stimNo129r0c0v1.5.jpg	 r	 7.231	 GoodTrial	 1.5	 bl
1	 7	 1	 left	 LineStimuli//3.8/stimNo86r7c7v3.8.jpg	 r	 1.664	 GoodTrial	 3.8	 bl
2	 7	 1	 right	 LineStimuli//3.8/stimNo111r15c20v3.8.jpg	 l	 1.713	 GoodTrial	 3.8	 bl
3	 7	 0	 x	 LineStimuli//3.8/stimNo131r0c0v3.8.jpg	 r	 2.188	 GoodTrial	 3.8	 bl
4	 7	 0	 x	 LineStimuli//3.8/stimNo137r0c0v3.8.jpg	 r	 1.787	 GoodTrial	 3.8	 bl
5	 7	 0	 x	 LineStimuli//3.8/stimNo125r0c0v3.8.jpg	 r	 1.852	 GoodTrial	 3.8	 bl
6	 7	 1	 left	 LineStimuli//3.8/stimNo120r5c3v3.8.jpg	 l	 1.568	 GoodTrial	 3.8	 bl
7	 7	 1	 right	 LineStimuli//3.8/stimNo84r9c19v3.8.jpg	 x	 0.184	 EARLY_RESPONSE	 3.8	 bl
8	 7	 0	 x	 LineStimuli//3.8/stimNo147r0c0v3.8.jpg	 r	 2.024	 GoodTrial	 3.8	 bl
9	 7	 1	 left	 LineStimuli//3.8/stimNo89r10c7v3.8.jpg	 l	 1.773	 GoodTrial	 3.8	 bl
10	 7	 1	 right	 LineStimuli//3.8/stimNo87r6c13v3.8.jpg	 l	 1.704	 GoodTrial	 3.8	 bl
11	 7	 0	 x	 LineStimuli//3.8/stimNo129r0c0v3.8.jpg	 r	 1.680	 GoodTrial	 3.8	 bl
12	 7	 0	 x	 LineStimuli//3.8/stimNo123r0c0v3.8.jpg	 r	 1.736	 GoodTrial	 3.8	 bl
13	 7	 0	 x	 LineStimuli//3.8/stimNo151r0c0v3.8.jpg	 r	 1.618	 GoodTrial	 3.8	 bl
14	 7	 1	 right	 LineStimuli//3.8/stimNo94r6c17v3.8.jpg	 l	 1.597	 GoodTrial	 3.8	 bl
15	 7	 1	 right	 LineStimuli//3.8/stimNo85r3c13v3.8.jpg	 l	 1.638	 GoodTrial	 3.8	 bl
16	 7	 1	 left	 LineStimuli//3.8/stimNo119r9c8v3.8.jpg	 l	 3.159	 GoodTrial	 3.8	 bl
17	 7	 0	 x	 LineStimuli//3.8/stimNo140r0c0v3.8.jpg	 r	 2.037	 GoodTrial	 3.8	 bl
18	 7	 1	 left	 LineStimuli//3.8/stimNo103r11c7v3.8.jpg	 l	 1.576	 GoodTrial	 3.8	 bl
19	 7	 1	 left	 LineStimuli//3.8/stimNo115r14c10v3.8.jpg	 l	 1.575	 GoodTrial	 3.8	 bl
20	 7	 0	 x	 LineStimuli//3.8/stimNo149r0c0v3.8.jpg	 r	 1.702	 GoodTrial	 3.8	 bl
21	 7	 1	 right	 LineStimuli//3.8/stimNo112r12c16v3.8.jpg	 l	 1.707	 GoodTrial	 3.8	 bl
22	 7	 1	 right	 LineStimuli//3.8/stimNo95r5c21v3.8.jpg	 l	 1.763	 GoodTrial	 3.8	 bl
23	 7	 1	 left	 LineStimuli//3.8/stimNo118r4c8v3.8.jpg	 l	 1.587	 GoodTrial	 3.8	 bl
24	 7	 1	 left	 LineStimuli//3.8/stimNo100r13c6v3.8.jpg	 l	 1.605	 GoodTrial	 3.8	 bl
25	 7	 1	 left	 LineStimuli//3.8/stimNo104r12c8v3.8.jpg	 l	 1.641	 GoodTrial	 3.8	 bl
26	 7	 1	 left	 LineStimuli//3.8/stimNo113r14c9v3.8.jpg	 l	 1.632	 GoodTrial	 3.8	 bl
27	 7	 0	 x	 LineStimuli//3.8/stimNo148r0c0v3.8.jpg	 r	 1.791	 GoodTrial	 3.8	 bl
28	 7	 0	 x	 LineStimuli//3.8/stimNo135r0c0v3.8.jpg	 r	 1.734	 GoodTrial	 3.8	 bl
29	 7	 0	 x	 LineStimuli//3.8/stimNo152r0c0v3.8.jpg	 r	 2.039	 GoodTrial	 3.8	 bl
30	 7	 0	 x	 LineStimuli//3.8/stimNo141r0c0v3.8.jpg	 r	 1.655	 GoodTrial	 3.8	 bl
31	 7	 0	 x	 LineStimuli//3.8/stimNo150r0c0v3.8.jpg	 r	 1.939	 GoodTrial	 3.8	 bl
32	 7	 0	 x	 LineStimuli//3.8/stimNo159r0c0v3.8.jpg	 r	 2.073	 GoodTrial	 3.8	 bl
33	 7	 1	 left	 LineStimuli//3.8/stimNo83r9c9v3.8.jpg	 l	 1.576	 GoodTrial	 3.8	 bl
34	 7	 1	 right	 LineStimuli//3.8/stimNo82r9c21v3.8.jpg	 l	 1.616	 GoodTrial	 3.8	 bl
35	 7	 0	 x	 LineStimuli//3.8/stimNo155r0c0v3.8.jpg	 r	 1.912	 GoodTrial	 3.8	 bl
36	 7	 0	 x	 LineStimuli//3.8/stimNo128r0c0v3.8.jpg	 r	 1.812	 GoodTrial	 3.8	 bl
37	 7	 1	 right	 LineStimuli//3.8/stimNo81r3c21v3.8.jpg	 l	 1.611	 GoodTrial	 3.8	 bl
38	 7	 1	 left	 LineStimuli//3.8/stimNo116r7c3v3.8.jpg	 l	 1.507	 GoodTrial	 3.8	 bl
39	 7	 0	 x	 LineStimuli//3.8/stimNo160r0c0v3.8.jpg	 r	 1.738	 GoodTrial	 3.8	 bl
40	 7	 0	 x	 LineStimuli//3.8/stimNo157r0c0v3.8.jpg	 r	 1.967	 GoodTrial	 3.8	 bl
41	 7	 0	 x	 LineStimuli//3.8/stimNo132r0c0v3.8.jpg	 r	 1.848	 GoodTrial	 3.8	 bl
42	 7	 1	 right	 LineStimuli//3.8/stimNo92r6c21v3.8.jpg	 l	 2.074	 GoodTrial	 3.8	 bl
43	 7	 0	 x	 LineStimuli//3.8/stimNo127r0c0v3.8.jpg	 r	 1.800	 GoodTrial	 3.8	 bl
44	 7	 1	 right	 LineStimuli//3.8/stimNo91r10c16v3.8.jpg	 l	 1.656	 GoodTrial	 3.8	 bl
45	 7	 1	 left	 LineStimuli//3.8/stimNo98r2c9v3.8.jpg	 l	 2.329	 GoodTrial	 3.8	 bl
46	 7	 1	 right	 LineStimuli//3.8/stimNo88r10c17v3.8.jpg	 l	 1.510	 GoodTrial	 3.8	 bl
47	 7	 0	 x	 LineStimuli//3.8/stimNo126r0c0v3.8.jpg	 r	 1.769	 GoodTrial	 3.8	 bl
48	 7	 0	 x	 LineStimuli//3.8/stimNo156r0c0v3.8.jpg	 r	 1.705	 GoodTrial	 3.8	 bl
49	 7	 0	 x	 LineStimuli//3.8/stimNo133r0c0v3.8.jpg	 r	 1.902	 GoodTrial	 3.8	 bl
50	 7	 1	 right	 LineStimuli//3.8/stimNo99r2c13v3.8.jpg	 l	 1.572	 GoodTrial	 3.8	 bl
