Trial	Block	Target_pr	Target_side	Name	Key	RT	Message	Block_Type	Condition
1	 1	 1	 left	 LineStimuli//4.3/stimNo103r10c4v4.3.jpg	 l	 1.580	 GoodTrial	 4.3	 bl
2	 1	 0	 x	 LineStimuli//4.3/stimNo153r0c0v4.3.jpg	 r	 1.728	 GoodTrial	 4.3	 bl
3	 1	 0	 x	 LineStimuli//4.3/stimNo145r0c0v4.3.jpg	 r	 1.682	 GoodTrial	 4.3	 bl
4	 1	 0	 x	 LineStimuli//4.3/stimNo140r0c0v4.3.jpg	 r	 1.562	 GoodTrial	 4.3	 bl
5	 1	 0	 x	 LineStimuli//4.3/stimNo137r0c0v4.3.jpg	 r	 1.510	 GoodTrial	 4.3	 bl
6	 1	 1	 left	 LineStimuli//4.3/stimNo105r14c6v4.3.jpg	 l	 1.648	 GoodTrial	 4.3	 bl
7	 1	 0	 x	 LineStimuli//4.3/stimNo159r0c0v4.3.jpg	 r	 1.514	 GoodTrial	 4.3	 bl
8	 1	 1	 right	 LineStimuli//4.3/stimNo84r15c20v4.3.jpg	 l	 1.574	 GoodTrial	 4.3	 bl
9	 1	 1	 right	 LineStimuli//4.3/stimNo112r10c16v4.3.jpg	 l	 1.506	 GoodTrial	 4.3	 bl
10	 1	 1	 right	 LineStimuli//4.3/stimNo92r2c20v4.3.jpg	 r	 1.618	 GoodTrial	 4.3	 bl
11	 1	 1	 right	 LineStimuli//4.3/stimNo116r5c13v4.3.jpg	 l	 1.536	 GoodTrial	 4.3	 bl
12	 1	 1	 right	 LineStimuli//4.3/stimNo91r9c13v4.3.jpg	 l	 1.519	 GoodTrial	 4.3	 bl
13	 1	 1	 left	 LineStimuli//4.3/stimNo85r3c5v4.3.jpg	 l	 1.616	 GoodTrial	 4.3	 bl
14	 1	 0	 x	 LineStimuli//4.3/stimNo160r0c0v4.3.jpg	 r	 1.904	 GoodTrial	 4.3	 bl
15	 1	 1	 left	 LineStimuli//4.3/stimNo106r8c2v4.3.jpg	 l	 1.516	 GoodTrial	 4.3	 bl
16	 1	 0	 x	 LineStimuli//4.3/stimNo152r0c0v4.3.jpg	 r	 1.652	 GoodTrial	 4.3	 bl
17	 1	 0	 x	 LineStimuli//4.3/stimNo149r0c0v4.3.jpg	 r	 1.520	 GoodTrial	 4.3	 bl
18	 1	 0	 x	 LineStimuli//4.3/stimNo139r0c0v4.3.jpg	 r	 1.612	 GoodTrial	 4.3	 bl
19	 1	 1	 left	 LineStimuli//4.3/stimNo86r7c3v4.3.jpg	 l	 1.634	 GoodTrial	 4.3	 bl
20	 1	 1	 right	 LineStimuli//4.3/stimNo109r15c15v4.3.jpg	 l	 1.468	 GoodTrial	 4.3	 bl
21	 1	 0	 x	 LineStimuli//4.3/stimNo127r0c0v4.3.jpg	 r	 1.512	 GoodTrial	 4.3	 bl
22	 1	 0	 x	 LineStimuli//4.3/stimNo158r0c0v4.3.jpg	 r	 1.552	 GoodTrial	 4.3	 bl
23	 1	 1	 right	 LineStimuli//4.3/stimNo99r14c18v4.3.jpg	 l	 1.490	 GoodTrial	 4.3	 bl
24	 1	 1	 left	 LineStimuli//4.3/stimNo100r8c3v4.3.jpg	 l	 1.488	 GoodTrial	 4.3	 bl
25	 1	 0	 x	 LineStimuli//4.3/stimNo154r0c0v4.3.jpg	 r	 1.528	 GoodTrial	 4.3	 bl
26	 1	 0	 x	 LineStimuli//4.3/stimNo134r0c0v4.3.jpg	 r	 1.537	 GoodTrial	 4.3	 bl
27	 1	 0	 x	 LineStimuli//4.3/stimNo151r0c0v4.3.jpg	 r	 1.656	 GoodTrial	 4.3	 bl
28	 1	 1	 left	 LineStimuli//4.3/stimNo101r5c5v4.3.jpg	 l	 1.432	 GoodTrial	 4.3	 bl
29	 1	 1	 left	 LineStimuli//4.3/stimNo107r2c8v4.3.jpg	 l	 1.569	 GoodTrial	 4.3	 bl
30	 1	 0	 x	 LineStimuli//4.3/stimNo135r0c0v4.3.jpg	 r	 1.572	 GoodTrial	 4.3	 bl
31	 1	 1	 right	 LineStimuli//4.3/stimNo102r10c19v4.3.jpg	 l	 1.504	 GoodTrial	 4.3	 bl
32	 1	 1	 right	 LineStimuli//4.3/stimNo97r6c21v4.3.jpg	 l	 1.831	 GoodTrial	 4.3	 bl
33	 1	 0	 x	 LineStimuli//4.3/stimNo129r0c0v4.3.jpg	 r	 1.614	 GoodTrial	 4.3	 bl
34	 1	 1	 right	 LineStimuli//4.3/stimNo119r12c17v4.3.jpg	 l	 1.874	 GoodTrial	 4.3	 bl
35	 1	 1	 left	 LineStimuli//4.3/stimNo111r10c9v4.3.jpg	 l	 1.701	 GoodTrial	 4.3	 bl
36	 1	 0	 x	 LineStimuli//4.3/stimNo138r0c0v4.3.jpg	 r	 1.501	 GoodTrial	 4.3	 bl
37	 1	 0	 x	 LineStimuli//4.3/stimNo146r0c0v4.3.jpg	 r	 1.587	 GoodTrial	 4.3	 bl
38	 1	 1	 right	 LineStimuli//4.3/stimNo81r10c14v4.3.jpg	 l	 1.557	 GoodTrial	 4.3	 bl
39	 1	 0	 x	 LineStimuli//4.3/stimNo124r0c0v4.3.jpg	 r	 1.535	 GoodTrial	 4.3	 bl
40	 1	 1	 left	 LineStimuli//4.3/stimNo108r5c8v4.3.jpg	 l	 1.513	 GoodTrial	 4.3	 bl
41	 1	 1	 right	 LineStimuli//4.3/stimNo89r3c17v4.3.jpg	 l	 1.552	 GoodTrial	 4.3	 bl
42	 1	 1	 right	 LineStimuli//4.3/stimNo96r4c19v4.3.jpg	 l	 1.457	 GoodTrial	 4.3	 bl
43	 1	 0	 x	 LineStimuli//4.3/stimNo156r0c0v4.3.jpg	 r	 1.505	 GoodTrial	 4.3	 bl
44	 1	 0	 x	 LineStimuli//4.3/stimNo130r0c0v4.3.jpg	 r	 1.488	 GoodTrial	 4.3	 bl
45	 1	 0	 x	 LineStimuli//4.3/stimNo122r0c0v4.3.jpg	 r	 1.491	 GoodTrial	 4.3	 bl
46	 1	 0	 x	 LineStimuli//4.3/stimNo123r0c0v4.3.jpg	 r	 1.539	 GoodTrial	 4.3	 bl
47	 1	 1	 right	 LineStimuli//4.3/stimNo115r10c18v4.3.jpg	 l	 1.569	 GoodTrial	 4.3	 bl
48	 1	 0	 x	 LineStimuli//4.3/stimNo142r0c0v4.3.jpg	 r	 1.473	 GoodTrial	 4.3	 bl
49	 1	 1	 left	 LineStimuli//4.3/stimNo95r11c9v4.3.jpg	 l	 1.579	 GoodTrial	 4.3	 bl
50	 1	 1	 left	 LineStimuli//4.3/stimNo83r4c2v4.3.jpg	 l	 1.560	 GoodTrial	 4.3	 bl
1	 2	 0	 x	 LineStimuli//3.3/stimNo125r0c0v3.3.jpg	 r	 1.711	 GoodTrial	 3.3	 bl
2	 2	 1	 left	 LineStimuli//3.3/stimNo94r14c9v3.3.jpg	 r	 1.555	 GoodTrial	 3.3	 bl
3	 2	 0	 x	 LineStimuli//3.3/stimNo147r0c0v3.3.jpg	 r	 1.545	 GoodTrial	 3.3	 bl
4	 2	 0	 x	 LineStimuli//3.3/stimNo153r0c0v3.3.jpg	 l	 1.335	 GoodTrial	 3.3	 bl
5	 2	 0	 x	 LineStimuli//3.3/stimNo151r0c0v3.3.jpg	 r	 1.633	 GoodTrial	 3.3	 bl
6	 2	 0	 x	 LineStimuli//3.3/stimNo146r0c0v3.3.jpg	 r	 1.675	 GoodTrial	 3.3	 bl
7	 2	 0	 x	 LineStimuli//3.3/stimNo145r0c0v3.3.jpg	 r	 1.513	 GoodTrial	 3.3	 bl
8	 2	 1	 right	 LineStimuli//3.3/stimNo82r11c20v3.3.jpg	 l	 1.609	 GoodTrial	 3.3	 bl
9	 2	 1	 right	 LineStimuli//3.3/stimNo99r6c17v3.3.jpg	 l	 1.539	 GoodTrial	 3.3	 bl
10	 2	 0	 x	 LineStimuli//3.3/stimNo156r0c0v3.3.jpg	 r	 1.593	 GoodTrial	 3.3	 bl
11	 2	 0	 x	 LineStimuli//3.3/stimNo126r0c0v3.3.jpg	 r	 1.730	 GoodTrial	 3.3	 bl
12	 2	 1	 left	 LineStimuli//3.3/stimNo108r13c2v3.3.jpg	 r	 1.748	 GoodTrial	 3.3	 bl
13	 2	 1	 left	 LineStimuli//3.3/stimNo92r10c7v3.3.jpg	 l	 1.639	 GoodTrial	 3.3	 bl
14	 2	 0	 x	 LineStimuli//3.3/stimNo142r0c0v3.3.jpg	 r	 1.729	 GoodTrial	 3.3	 bl
15	 2	 0	 x	 LineStimuli//3.3/stimNo160r0c0v3.3.jpg	 r	 1.819	 GoodTrial	 3.3	 bl
16	 2	 0	 x	 LineStimuli//3.3/stimNo157r0c0v3.3.jpg	 r	 1.630	 GoodTrial	 3.3	 bl
17	 2	 1	 right	 LineStimuli//3.3/stimNo101r7c16v3.3.jpg	 l	 1.532	 GoodTrial	 3.3	 bl
18	 2	 1	 right	 LineStimuli//3.3/stimNo120r8c14v3.3.jpg	 l	 1.504	 GoodTrial	 3.3	 bl
19	 2	 0	 x	 LineStimuli//3.3/stimNo154r0c0v3.3.jpg	 r	 1.653	 GoodTrial	 3.3	 bl
20	 2	 0	 x	 LineStimuli//3.3/stimNo141r0c0v3.3.jpg	 r	 1.605	 GoodTrial	 3.3	 bl
21	 2	 1	 right	 LineStimuli//3.3/stimNo102r13c13v3.3.jpg	 r	 1.559	 GoodTrial	 3.3	 bl
22	 2	 1	 left	 LineStimuli//3.3/stimNo110r4c3v3.3.jpg	 r	 1.854	 GoodTrial	 3.3	 bl
23	 2	 1	 left	 LineStimuli//3.3/stimNo119r15c7v3.3.jpg	 l	 1.803	 GoodTrial	 3.3	 bl
24	 2	 0	 x	 LineStimuli//3.3/stimNo150r0c0v3.3.jpg	 r	 1.585	 GoodTrial	 3.3	 bl
25	 2	 1	 left	 LineStimuli//3.3/stimNo85r6c4v3.3.jpg	 l	 1.481	 GoodTrial	 3.3	 bl
26	 2	 1	 left	 LineStimuli//3.3/stimNo95r15c8v3.3.jpg	 l	 1.831	 GoodTrial	 3.3	 bl
27	 2	 1	 left	 LineStimuli//3.3/stimNo83r8c3v3.3.jpg	 l	 1.522	 GoodTrial	 3.3	 bl
28	 2	 1	 right	 LineStimuli//3.3/stimNo84r6c16v3.3.jpg	 l	 1.506	 GoodTrial	 3.3	 bl
29	 2	 1	 left	 LineStimuli//3.3/stimNo81r15c8v3.3.jpg	 l	 1.628	 GoodTrial	 3.3	 bl
30	 2	 0	 x	 LineStimuli//3.3/stimNo134r0c0v3.3.jpg	 r	 1.724	 GoodTrial	 3.3	 bl
31	 2	 1	 right	 LineStimuli//3.3/stimNo107r2c17v3.3.jpg	 l	 2.226	 GoodTrial	 3.3	 bl
32	 2	 1	 left	 LineStimuli//3.3/stimNo93r3c5v3.3.jpg	 l	 1.627	 GoodTrial	 3.3	 bl
33	 2	 1	 left	 LineStimuli//3.3/stimNo111r15c7v3.3.jpg	 l	 1.600	 GoodTrial	 3.3	 bl
34	 2	 0	 x	 LineStimuli//3.3/stimNo159r0c0v3.3.jpg	 r	 2.066	 GoodTrial	 3.3	 bl
35	 2	 0	 x	 LineStimuli//3.3/stimNo123r0c0v3.3.jpg	 r	 1.883	 GoodTrial	 3.3	 bl
36	 2	 0	 x	 LineStimuli//3.3/stimNo139r0c0v3.3.jpg	 r	 1.719	 GoodTrial	 3.3	 bl
37	 2	 0	 x	 LineStimuli//3.3/stimNo135r0c0v3.3.jpg	 r	 1.776	 GoodTrial	 3.3	 bl
38	 2	 0	 x	 LineStimuli//3.3/stimNo124r0c0v3.3.jpg	 r	 1.687	 GoodTrial	 3.3	 bl
39	 2	 0	 x	 LineStimuli//3.3/stimNo128r0c0v3.3.jpg	 r	 1.521	 GoodTrial	 3.3	 bl
40	 2	 1	 right	 LineStimuli//3.3/stimNo98r4c21v3.3.jpg	 l	 1.759	 GoodTrial	 3.3	 bl
41	 2	 0	 x	 LineStimuli//3.3/stimNo127r0c0v3.3.jpg	 r	 1.671	 GoodTrial	 3.3	 bl
42	 2	 0	 x	 LineStimuli//3.3/stimNo129r0c0v3.3.jpg	 r	 1.664	 GoodTrial	 3.3	 bl
43	 2	 1	 right	 LineStimuli//3.3/stimNo88r9c14v3.3.jpg	 l	 1.504	 GoodTrial	 3.3	 bl
44	 2	 1	 left	 LineStimuli//3.3/stimNo100r3c3v3.3.jpg	 l	 1.703	 GoodTrial	 3.3	 bl
45	 2	 0	 x	 LineStimuli//3.3/stimNo136r0c0v3.3.jpg	 r	 1.663	 GoodTrial	 3.3	 bl
46	 2	 1	 right	 LineStimuli//3.3/stimNo112r5c15v3.3.jpg	 l	 1.531	 GoodTrial	 3.3	 bl
47	 2	 1	 right	 LineStimuli//3.3/stimNo96r8c18v3.3.jpg	 l	 1.716	 GoodTrial	 3.3	 bl
48	 2	 0	 x	 LineStimuli//3.3/stimNo155r0c0v3.3.jpg	 r	 1.798	 GoodTrial	 3.3	 bl
49	 2	 1	 right	 LineStimuli//3.3/stimNo91r12c16v3.3.jpg	 l	 1.778	 GoodTrial	 3.3	 bl
50	 2	 0	 x	 LineStimuli//3.3/stimNo132r0c0v3.3.jpg	 r	 1.730	 GoodTrial	 3.3	 bl
1	 3	 0	 x	 LineStimuli//1.8/stimNo126r0c0v1.8.jpg	 r	 2.958	 GoodTrial	 1.8	 bl
2	 3	 0	 x	 LineStimuli//1.8/stimNo154r0c0v1.8.jpg	 r	 1.784	 GoodTrial	 1.8	 bl
3	 3	 1	 right	 LineStimuli//1.8/stimNo84r11c21v1.8.jpg	 r	 1.568	 GoodTrial	 1.8	 bl
4	 3	 1	 left	 LineStimuli//1.8/stimNo91r14c4v1.8.jpg	 l	 2.094	 GoodTrial	 1.8	 bl
5	 3	 1	 left	 LineStimuli//1.8/stimNo89r11c6v1.8.jpg	 l	 1.896	 GoodTrial	 1.8	 bl
6	 3	 0	 x	 LineStimuli//1.8/stimNo158r0c0v1.8.jpg	 r	 1.824	 GoodTrial	 1.8	 bl
7	 3	 0	 x	 LineStimuli//1.8/stimNo132r0c0v1.8.jpg	 r	 1.702	 GoodTrial	 1.8	 bl
8	 3	 1	 right	 LineStimuli//1.8/stimNo102r14c17v1.8.jpg	 l	 2.072	 GoodTrial	 1.8	 bl
9	 3	 0	 x	 LineStimuli//1.8/stimNo155r0c0v1.8.jpg	 r	 2.669	 GoodTrial	 1.8	 bl
10	 3	 0	 x	 LineStimuli//1.8/stimNo148r0c0v1.8.jpg	 r	 2.020	 GoodTrial	 1.8	 bl
11	 3	 0	 x	 LineStimuli//1.8/stimNo128r0c0v1.8.jpg	 r	 2.131	 GoodTrial	 1.8	 bl
12	 3	 0	 x	 LineStimuli//1.8/stimNo135r0c0v1.8.jpg	 r	 1.676	 GoodTrial	 1.8	 bl
13	 3	 1	 right	 LineStimuli//1.8/stimNo108r9c21v1.8.jpg	 r	 2.005	 GoodTrial	 1.8	 bl
14	 3	 0	 x	 LineStimuli//1.8/stimNo145r0c0v1.8.jpg	 r	 2.927	 GoodTrial	 1.8	 bl
15	 3	 0	 x	 LineStimuli//1.8/stimNo140r0c0v1.8.jpg	 r	 1.751	 GoodTrial	 1.8	 bl
16	 3	 1	 right	 LineStimuli//1.8/stimNo114r8c13v1.8.jpg	 r	 1.668	 GoodTrial	 1.8	 bl
17	 3	 0	 x	 LineStimuli//1.8/stimNo138r0c0v1.8.jpg	 r	 2.249	 GoodTrial	 1.8	 bl
18	 3	 0	 x	 LineStimuli//1.8/stimNo144r0c0v1.8.jpg	 r	 2.249	 GoodTrial	 1.8	 bl
19	 3	 0	 x	 LineStimuli//1.8/stimNo125r0c0v1.8.jpg	 r	 2.129	 GoodTrial	 1.8	 bl
20	 3	 0	 x	 LineStimuli//1.8/stimNo149r0c0v1.8.jpg	 r	 1.575	 GoodTrial	 1.8	 bl
21	 3	 1	 right	 LineStimuli//1.8/stimNo119r3c21v1.8.jpg	 r	 1.755	 GoodTrial	 1.8	 bl
22	 3	 0	 x	 LineStimuli//1.8/stimNo133r0c0v1.8.jpg	 r	 2.043	 GoodTrial	 1.8	 bl
23	 3	 0	 x	 LineStimuli//1.8/stimNo159r0c0v1.8.jpg	 r	 1.879	 GoodTrial	 1.8	 bl
24	 3	 0	 x	 LineStimuli//1.8/stimNo139r0c0v1.8.jpg	 r	 1.746	 GoodTrial	 1.8	 bl
25	 3	 0	 x	 LineStimuli//1.8/stimNo143r0c0v1.8.jpg	 r	 1.805	 GoodTrial	 1.8	 bl
26	 3	 1	 right	 LineStimuli//1.8/stimNo93r3c17v1.8.jpg	 r	 1.775	 GoodTrial	 1.8	 bl
27	 3	 0	 x	 LineStimuli//1.8/stimNo123r0c0v1.8.jpg	 r	 2.413	 GoodTrial	 1.8	 bl
28	 3	 0	 x	 LineStimuli//1.8/stimNo130r0c0v1.8.jpg	 r	 1.808	 GoodTrial	 1.8	 bl
29	 3	 0	 x	 LineStimuli//1.8/stimNo151r0c0v1.8.jpg	 r	 1.683	 GoodTrial	 1.8	 bl
30	 3	 0	 x	 LineStimuli//1.8/stimNo131r0c0v1.8.jpg	 r	 1.679	 GoodTrial	 1.8	 bl
31	 3	 0	 x	 LineStimuli//1.8/stimNo146r0c0v1.8.jpg	 r	 1.719	 GoodTrial	 1.8	 bl
32	 3	 1	 left	 LineStimuli//1.8/stimNo94r13c8v1.8.jpg	 r	 1.755	 GoodTrial	 1.8	 bl
33	 3	 0	 x	 LineStimuli//1.8/stimNo156r0c0v1.8.jpg	 r	 1.793	 GoodTrial	 1.8	 bl
34	 3	 1	 left	 LineStimuli//1.8/stimNo95r4c9v1.8.jpg	 r	 1.691	 GoodTrial	 1.8	 bl
35	 3	 1	 right	 LineStimuli//1.8/stimNo83r6c13v1.8.jpg	 r	 2.169	 GoodTrial	 1.8	 bl
36	 3	 1	 left	 LineStimuli//1.8/stimNo110r4c7v1.8.jpg	 l	 1.689	 GoodTrial	 1.8	 bl
37	 3	 1	 left	 LineStimuli//1.8/stimNo107r5c4v1.8.jpg	 l	 1.509	 GoodTrial	 1.8	 bl
38	 3	 0	 x	 LineStimuli//1.8/stimNo147r0c0v1.8.jpg	 l	 1.873	 GoodTrial	 1.8	 bl
39	 3	 1	 left	 LineStimuli//1.8/stimNo85r13c2v1.8.jpg	 l	 1.653	 GoodTrial	 1.8	 bl
40	 3	 1	 right	 LineStimuli//1.8/stimNo112r6c15v1.8.jpg	 l	 1.545	 GoodTrial	 1.8	 bl
41	 3	 0	 x	 LineStimuli//1.8/stimNo141r0c0v1.8.jpg	 r	 1.751	 GoodTrial	 1.8	 bl
42	 3	 1	 right	 LineStimuli//1.8/stimNo104r3c21v1.8.jpg	 l	 1.781	 GoodTrial	 1.8	 bl
43	 3	 1	 right	 LineStimuli//1.8/stimNo118r11c15v1.8.jpg	 l	 1.665	 GoodTrial	 1.8	 bl
44	 3	 1	 left	 LineStimuli//1.8/stimNo113r6c7v1.8.jpg	 l	 1.515	 GoodTrial	 1.8	 bl
45	 3	 1	 right	 LineStimuli//1.8/stimNo90r15c13v1.8.jpg	 l	 1.655	 GoodTrial	 1.8	 bl
46	 3	 1	 right	 LineStimuli//1.8/stimNo82r7c18v1.8.jpg	 l	 1.503	 GoodTrial	 1.8	 bl
47	 3	 0	 x	 LineStimuli//1.8/stimNo134r0c0v1.8.jpg	 l	 1.709	 GoodTrial	 1.8	 bl
48	 3	 0	 x	 LineStimuli//1.8/stimNo121r0c0v1.8.jpg	 l	 1.913	 GoodTrial	 1.8	 bl
49	 3	 0	 x	 LineStimuli//1.8/stimNo124r0c0v1.8.jpg	 r	 1.932	 GoodTrial	 1.8	 bl
50	 3	 1	 right	 LineStimuli//1.8/stimNo109r7c17v1.8.jpg	 l	 1.576	 GoodTrial	 1.8	 bl
1	 4	 1	 right	 LineStimuli//2.3/stimNo101r8c14v2.3.jpg	 l	 1.623	 GoodTrial	 2.3	 bl
2	 4	 0	 x	 LineStimuli//2.3/stimNo123r0c0v2.3.jpg	 r	 1.777	 GoodTrial	 2.3	 bl
3	 4	 0	 x	 LineStimuli//2.3/stimNo153r0c0v2.3.jpg	 r	 1.650	 GoodTrial	 2.3	 bl
4	 4	 1	 right	 LineStimuli//2.3/stimNo118r4c17v2.3.jpg	 l	 1.572	 GoodTrial	 2.3	 bl
5	 4	 1	 left	 LineStimuli//2.3/stimNo106r9c9v2.3.jpg	 r	 1.824	 GoodTrial	 2.3	 bl
6	 4	 0	 x	 LineStimuli//2.3/stimNo157r0c0v2.3.jpg	 r	 1.768	 GoodTrial	 2.3	 bl
7	 4	 0	 x	 LineStimuli//2.3/stimNo144r0c0v2.3.jpg	 r	 2.002	 GoodTrial	 2.3	 bl
8	 4	 1	 left	 LineStimuli//2.3/stimNo81r4c3v2.3.jpg	 l	 1.567	 GoodTrial	 2.3	 bl
9	 4	 1	 right	 LineStimuli//2.3/stimNo110r15c19v2.3.jpg	 l	 1.887	 GoodTrial	 2.3	 bl
10	 4	 0	 x	 LineStimuli//2.3/stimNo124r0c0v2.3.jpg	 r	 1.835	 GoodTrial	 2.3	 bl
11	 4	 0	 x	 LineStimuli//2.3/stimNo138r0c0v2.3.jpg	 r	 1.772	 GoodTrial	 2.3	 bl
12	 4	 1	 right	 LineStimuli//2.3/stimNo90r14c21v2.3.jpg	 l	 1.743	 GoodTrial	 2.3	 bl
13	 4	 1	 left	 LineStimuli//2.3/stimNo96r3c3v2.3.jpg	 l	 1.590	 GoodTrial	 2.3	 bl
14	 4	 1	 left	 LineStimuli//2.3/stimNo113r3c8v2.3.jpg	 l	 1.541	 GoodTrial	 2.3	 bl
15	 4	 0	 x	 LineStimuli//2.3/stimNo150r0c0v2.3.jpg	 r	 1.830	 GoodTrial	 2.3	 bl
16	 4	 0	 x	 LineStimuli//2.3/stimNo136r0c0v2.3.jpg	 r	 1.839	 GoodTrial	 2.3	 bl
17	 4	 0	 x	 LineStimuli//2.3/stimNo146r0c0v2.3.jpg	 r	 1.676	 GoodTrial	 2.3	 bl
18	 4	 1	 right	 LineStimuli//2.3/stimNo91r11c20v2.3.jpg	 l	 1.736	 GoodTrial	 2.3	 bl
19	 4	 0	 x	 LineStimuli//2.3/stimNo154r0c0v2.3.jpg	 r	 1.650	 GoodTrial	 2.3	 bl
20	 4	 1	 right	 LineStimuli//2.3/stimNo92r10c17v2.3.jpg	 r	 1.628	 GoodTrial	 2.3	 bl
21	 4	 1	 left	 LineStimuli//2.3/stimNo95r13c9v2.3.jpg	 l	 1.988	 GoodTrial	 2.3	 bl
22	 4	 1	 left	 LineStimuli//2.3/stimNo100r8c6v2.3.jpg	 l	 1.464	 GoodTrial	 2.3	 bl
23	 4	 1	 left	 LineStimuli//2.3/stimNo108r15c6v2.3.jpg	 r	 1.768	 GoodTrial	 2.3	 bl
24	 4	 0	 x	 LineStimuli//2.3/stimNo159r0c0v2.3.jpg	 r	 2.182	 GoodTrial	 2.3	 bl
25	 4	 0	 x	 LineStimuli//2.3/stimNo130r0c0v2.3.jpg	 r	 2.100	 GoodTrial	 2.3	 bl
26	 4	 1	 left	 LineStimuli//2.3/stimNo82r12c4v2.3.jpg	 r	 1.888	 GoodTrial	 2.3	 bl
27	 4	 1	 left	 LineStimuli//2.3/stimNo119r3c2v2.3.jpg	 l	 1.600	 GoodTrial	 2.3	 bl
28	 4	 0	 x	 LineStimuli//2.3/stimNo152r0c0v2.3.jpg	 r	 1.693	 GoodTrial	 2.3	 bl
29	 4	 1	 right	 LineStimuli//2.3/stimNo107r11c15v2.3.jpg	 l	 1.542	 GoodTrial	 2.3	 bl
30	 4	 1	 right	 LineStimuli//2.3/stimNo99r2c13v2.3.jpg	 l	 2.248	 GoodTrial	 2.3	 bl
31	 4	 1	 left	 LineStimuli//2.3/stimNo88r15c2v2.3.jpg	 l	 1.588	 GoodTrial	 2.3	 bl
32	 4	 1	 left	 LineStimuli//2.3/stimNo94r8c9v2.3.jpg	 l	 1.514	 GoodTrial	 2.3	 bl
33	 4	 1	 right	 LineStimuli//2.3/stimNo105r14c14v2.3.jpg	 l	 1.704	 GoodTrial	 2.3	 bl
34	 4	 0	 x	 LineStimuli//2.3/stimNo131r0c0v2.3.jpg	 l	 1.457	 GoodTrial	 2.3	 bl
35	 4	 0	 x	 LineStimuli//2.3/stimNo148r0c0v2.3.jpg	 r	 1.818	 GoodTrial	 2.3	 bl
36	 4	 1	 left	 LineStimuli//2.3/stimNo86r8c9v2.3.jpg	 l	 1.504	 GoodTrial	 2.3	 bl
37	 4	 0	 x	 LineStimuli//2.3/stimNo156r0c0v2.3.jpg	 r	 1.726	 GoodTrial	 2.3	 bl
38	 4	 1	 right	 LineStimuli//2.3/stimNo89r8c21v2.3.jpg	 r	 1.704	 GoodTrial	 2.3	 bl
39	 4	 0	 x	 LineStimuli//2.3/stimNo134r0c0v2.3.jpg	 r	 1.800	 GoodTrial	 2.3	 bl
40	 4	 1	 left	 LineStimuli//2.3/stimNo104r2c4v2.3.jpg	 l	 1.492	 GoodTrial	 2.3	 bl
41	 4	 1	 right	 LineStimuli//2.3/stimNo120r4c17v2.3.jpg	 l	 1.626	 GoodTrial	 2.3	 bl
42	 4	 0	 x	 LineStimuli//2.3/stimNo141r0c0v2.3.jpg	 r	 1.887	 GoodTrial	 2.3	 bl
43	 4	 0	 x	 LineStimuli//2.3/stimNo137r0c0v2.3.jpg	 r	 1.792	 GoodTrial	 2.3	 bl
44	 4	 1	 left	 LineStimuli//2.3/stimNo114r7c8v2.3.jpg	 l	 1.494	 GoodTrial	 2.3	 bl
45	 4	 1	 right	 LineStimuli//2.3/stimNo85r4c15v2.3.jpg	 l	 1.622	 GoodTrial	 2.3	 bl
46	 4	 0	 x	 LineStimuli//2.3/stimNo127r0c0v2.3.jpg	 r	 1.774	 GoodTrial	 2.3	 bl
47	 4	 0	 x	 LineStimuli//2.3/stimNo143r0c0v2.3.jpg	 r	 1.589	 GoodTrial	 2.3	 bl
48	 4	 0	 x	 LineStimuli//2.3/stimNo145r0c0v2.3.jpg	 r	 1.792	 GoodTrial	 2.3	 bl
49	 4	 0	 x	 LineStimuli//2.3/stimNo147r0c0v2.3.jpg	 r	 1.810	 GoodTrial	 2.3	 bl
50	 4	 0	 x	 LineStimuli//2.3/stimNo149r0c0v2.3.jpg	 r	 1.760	 GoodTrial	 2.3	 bl
1	 5	 0	 x	 LineStimuli//2.8/stimNo149r0c0v2.8.jpg	 r	 2.317	 GoodTrial	 2.8	 bl
2	 5	 1	 right	 LineStimuli//2.8/stimNo120r8c20v2.8.jpg	 l	 1.590	 GoodTrial	 2.8	 bl
3	 5	 1	 right	 LineStimuli//2.8/stimNo85r4c15v2.8.jpg	 l	 1.497	 GoodTrial	 2.8	 bl
4	 5	 1	 left	 LineStimuli//2.8/stimNo97r11c4v2.8.jpg	 l	 1.485	 GoodTrial	 2.8	 bl
5	 5	 1	 right	 LineStimuli//2.8/stimNo118r5c16v2.8.jpg	 l	 1.601	 GoodTrial	 2.8	 bl
6	 5	 1	 left	 LineStimuli//2.8/stimNo89r12c4v2.8.jpg	 l	 1.665	 GoodTrial	 2.8	 bl
7	 5	 1	 left	 LineStimuli//2.8/stimNo104r8c6v2.8.jpg	 l	 1.431	 GoodTrial	 2.8	 bl
8	 5	 0	 x	 LineStimuli//2.8/stimNo131r0c0v2.8.jpg	 l	 1.691	 GoodTrial	 2.8	 bl
9	 5	 1	 left	 LineStimuli//2.8/stimNo119r8c5v2.8.jpg	 l	 1.472	 GoodTrial	 2.8	 bl
10	 5	 0	 x	 LineStimuli//2.8/stimNo134r0c0v2.8.jpg	 r	 1.693	 GoodTrial	 2.8	 bl
11	 5	 1	 right	 LineStimuli//2.8/stimNo106r13c20v2.8.jpg	 l	 1.585	 GoodTrial	 2.8	 bl
12	 5	 0	 x	 LineStimuli//2.8/stimNo121r0c0v2.8.jpg	 r	 1.569	 GoodTrial	 2.8	 bl
13	 5	 0	 x	 LineStimuli//2.8/stimNo130r0c0v2.8.jpg	 r	 1.587	 GoodTrial	 2.8	 bl
14	 5	 0	 x	 LineStimuli//2.8/stimNo154r0c0v2.8.jpg	 r	 1.497	 GoodTrial	 2.8	 bl
15	 5	 0	 x	 LineStimuli//2.8/stimNo125r0c0v2.8.jpg	 r	 1.451	 GoodTrial	 2.8	 bl
16	 5	 1	 right	 LineStimuli//2.8/stimNo101r12c16v2.8.jpg	 l	 1.529	 GoodTrial	 2.8	 bl
17	 5	 1	 left	 LineStimuli//2.8/stimNo84r3c9v2.8.jpg	 r	 1.423	 GoodTrial	 2.8	 bl
18	 5	 0	 x	 LineStimuli//2.8/stimNo128r0c0v2.8.jpg	 r	 1.687	 GoodTrial	 2.8	 bl
19	 5	 0	 x	 LineStimuli//2.8/stimNo124r0c0v2.8.jpg	 r	 1.749	 GoodTrial	 2.8	 bl
20	 5	 0	 x	 LineStimuli//2.8/stimNo143r0c0v2.8.jpg	 r	 1.589	 GoodTrial	 2.8	 bl
21	 5	 0	 x	 LineStimuli//2.8/stimNo144r0c0v2.8.jpg	 r	 1.857	 GoodTrial	 2.8	 bl
22	 5	 1	 left	 LineStimuli//2.8/stimNo82r4c6v2.8.jpg	 l	 1.499	 GoodTrial	 2.8	 bl
23	 5	 1	 left	 LineStimuli//2.8/stimNo105r5c4v2.8.jpg	 l	 1.443	 GoodTrial	 2.8	 bl
24	 5	 1	 left	 LineStimuli//2.8/stimNo107r5c6v2.8.jpg	 l	 1.450	 GoodTrial	 2.8	 bl
25	 5	 1	 left	 LineStimuli//2.8/stimNo86r15c6v2.8.jpg	 l	 1.971	 GoodTrial	 2.8	 bl
26	 5	 1	 right	 LineStimuli//2.8/stimNo100r8c13v2.8.jpg	 l	 1.559	 GoodTrial	 2.8	 bl
27	 5	 1	 right	 LineStimuli//2.8/stimNo90r13c21v2.8.jpg	 l	 1.552	 GoodTrial	 2.8	 bl
28	 5	 1	 right	 LineStimuli//2.8/stimNo117r11c17v2.8.jpg	 l	 1.394	 GoodTrial	 2.8	 bl
29	 5	 0	 x	 LineStimuli//2.8/stimNo140r0c0v2.8.jpg	 r	 1.637	 GoodTrial	 2.8	 bl
30	 5	 0	 x	 LineStimuli//2.8/stimNo126r0c0v2.8.jpg	 r	 1.527	 GoodTrial	 2.8	 bl
31	 5	 1	 left	 LineStimuli//2.8/stimNo96r6c9v2.8.jpg	 l	 1.452	 GoodTrial	 2.8	 bl
32	 5	 1	 right	 LineStimuli//2.8/stimNo112r13c17v2.8.jpg	 l	 1.453	 GoodTrial	 2.8	 bl
33	 5	 0	 x	 LineStimuli//2.8/stimNo127r0c0v2.8.jpg	 r	 1.681	 GoodTrial	 2.8	 bl
34	 5	 0	 x	 LineStimuli//2.8/stimNo139r0c0v2.8.jpg	 r	 1.527	 GoodTrial	 2.8	 bl
35	 5	 1	 right	 LineStimuli//2.8/stimNo95r9c18v2.8.jpg	 l	 1.614	 GoodTrial	 2.8	 bl
36	 5	 0	 x	 LineStimuli//2.8/stimNo122r0c0v2.8.jpg	 r	 1.647	 GoodTrial	 2.8	 bl
37	 5	 0	 x	 LineStimuli//2.8/stimNo150r0c0v2.8.jpg	 r	 1.519	 GoodTrial	 2.8	 bl
38	 5	 0	 x	 LineStimuli//2.8/stimNo152r0c0v2.8.jpg	 r	 1.535	 GoodTrial	 2.8	 bl
39	 5	 0	 x	 LineStimuli//2.8/stimNo153r0c0v2.8.jpg	 r	 1.487	 GoodTrial	 2.8	 bl
40	 5	 0	 x	 LineStimuli//2.8/stimNo156r0c0v2.8.jpg	 r	 1.433	 GoodTrial	 2.8	 bl
41	 5	 1	 left	 LineStimuli//2.8/stimNo88r15c3v2.8.jpg	 r	 1.376	 GoodTrial	 2.8	 bl
42	 5	 1	 left	 LineStimuli//2.8/stimNo108r13c6v2.8.jpg	 l	 1.492	 GoodTrial	 2.8	 bl
43	 5	 1	 right	 LineStimuli//2.8/stimNo115r9c14v2.8.jpg	 l	 1.412	 GoodTrial	 2.8	 bl
44	 5	 0	 x	 LineStimuli//2.8/stimNo138r0c0v2.8.jpg	 r	 1.553	 GoodTrial	 2.8	 bl
45	 5	 0	 x	 LineStimuli//2.8/stimNo137r0c0v2.8.jpg	 r	 1.505	 GoodTrial	 2.8	 bl
46	 5	 1	 right	 LineStimuli//2.8/stimNo93r9c20v2.8.jpg	 l	 1.567	 GoodTrial	 2.8	 bl
47	 5	 1	 right	 LineStimuli//2.8/stimNo92r14c21v2.8.jpg	 r	 1.424	 GoodTrial	 2.8	 bl
48	 5	 0	 x	 LineStimuli//2.8/stimNo135r0c0v2.8.jpg	 r	 1.558	 GoodTrial	 2.8	 bl
49	 5	 1	 right	 LineStimuli//2.8/stimNo109r6c18v2.8.jpg	 l	 1.512	 GoodTrial	 2.8	 bl
50	 5	 0	 x	 LineStimuli//2.8/stimNo132r0c0v2.8.jpg	 r	 1.645	 GoodTrial	 2.8	 bl
1	 6	 0	 x	 LineStimuli//1.5/stimNo134r0c0v1.5.jpg	 r	 1.654	 GoodTrial	 1.5	 bl
2	 6	 1	 left	 LineStimuli//1.5/stimNo94r10c6v1.5.jpg	 r	 1.715	 GoodTrial	 1.5	 bl
3	 6	 1	 left	 LineStimuli//1.5/stimNo112r9c5v1.5.jpg	 l	 1.352	 GoodTrial	 1.5	 bl
4	 6	 0	 x	 LineStimuli//1.5/stimNo145r0c0v1.5.jpg	 l	 1.632	 GoodTrial	 1.5	 bl
5	 6	 1	 right	 LineStimuli//1.5/stimNo100r6c20v1.5.jpg	 l	 1.903	 GoodTrial	 1.5	 bl
6	 6	 0	 x	 LineStimuli//1.5/stimNo149r0c0v1.5.jpg	 r	 1.990	 GoodTrial	 1.5	 bl
7	 6	 1	 left	 LineStimuli//1.5/stimNo83r12c7v1.5.jpg	 r	 1.752	 GoodTrial	 1.5	 bl
8	 6	 1	 right	 LineStimuli//1.5/stimNo81r6c17v1.5.jpg	 l	 1.566	 GoodTrial	 1.5	 bl
9	 6	 0	 x	 LineStimuli//1.5/stimNo131r0c0v1.5.jpg	 l	 1.897	 GoodTrial	 1.5	 bl
10	 6	 1	 left	 LineStimuli//1.5/stimNo87r12c5v1.5.jpg	 r	 1.906	 GoodTrial	 1.5	 bl
11	 6	 1	 right	 LineStimuli//1.5/stimNo92r6c18v1.5.jpg	 l	 2.132	 GoodTrial	 1.5	 bl
12	 6	 0	 x	 LineStimuli//1.5/stimNo160r0c0v1.5.jpg	 r	 3.352	 GoodTrial	 1.5	 bl
13	 6	 1	 right	 LineStimuli//1.5/stimNo107r2c19v1.5.jpg	 r	 2.312	 GoodTrial	 1.5	 bl
14	 6	 1	 left	 LineStimuli//1.5/stimNo91r9c3v1.5.jpg	 l	 1.586	 GoodTrial	 1.5	 bl
15	 6	 0	 x	 LineStimuli//1.5/stimNo130r0c0v1.5.jpg	 r	 1.870	 GoodTrial	 1.5	 bl
16	 6	 1	 right	 LineStimuli//1.5/stimNo111r7c17v1.5.jpg	 l	 1.496	 GoodTrial	 1.5	 bl
17	 6	 0	 x	 LineStimuli//1.5/stimNo133r0c0v1.5.jpg	 l	 1.713	 GoodTrial	 1.5	 bl
18	 6	 0	 x	 LineStimuli//1.5/stimNo135r0c0v1.5.jpg	 r	 2.712	 GoodTrial	 1.5	 bl
19	 6	 0	 x	 LineStimuli//1.5/stimNo140r0c0v1.5.jpg	 l	 1.696	 GoodTrial	 1.5	 bl
20	 6	 1	 left	 LineStimuli//1.5/stimNo110r7c3v1.5.jpg	 r	 2.430	 GoodTrial	 1.5	 bl
21	 6	 0	 x	 LineStimuli//1.5/stimNo122r0c0v1.5.jpg	 r	 1.696	 GoodTrial	 1.5	 bl
22	 6	 1	 left	 LineStimuli//1.5/stimNo85r2c5v1.5.jpg	 r	 1.583	 GoodTrial	 1.5	 bl
23	 6	 1	 right	 LineStimuli//1.5/stimNo104r5c18v1.5.jpg	 r	 2.239	 GoodTrial	 1.5	 bl
24	 6	 1	 right	 LineStimuli//1.5/stimNo118r9c20v1.5.jpg	 l	 1.968	 GoodTrial	 1.5	 bl
25	 6	 1	 left	 LineStimuli//1.5/stimNo116r7c7v1.5.jpg	 l	 1.477	 GoodTrial	 1.5	 bl
26	 6	 0	 x	 LineStimuli//1.5/stimNo151r0c0v1.5.jpg	 r	 1.811	 GoodTrial	 1.5	 bl
27	 6	 0	 x	 LineStimuli//1.5/stimNo148r0c0v1.5.jpg	 r	 1.609	 GoodTrial	 1.5	 bl
28	 6	 0	 x	 LineStimuli//1.5/stimNo127r0c0v1.5.jpg	 l	 1.738	 GoodTrial	 1.5	 bl
29	 6	 0	 x	 LineStimuli//1.5/stimNo156r0c0v1.5.jpg	 r	 2.328	 GoodTrial	 1.5	 bl
30	 6	 0	 x	 LineStimuli//1.5/stimNo136r0c0v1.5.jpg	 r	 1.765	 GoodTrial	 1.5	 bl
31	 6	 1	 left	 LineStimuli//1.5/stimNo96r15c4v1.5.jpg	 r	 1.604	 GoodTrial	 1.5	 bl
32	 6	 1	 right	 LineStimuli//1.5/stimNo119r6c19v1.5.jpg	 r	 1.740	 GoodTrial	 1.5	 bl
33	 6	 1	 right	 LineStimuli//1.5/stimNo115r14c18v1.5.jpg	 r	 2.614	 GoodTrial	 1.5	 bl
34	 6	 1	 left	 LineStimuli//1.5/stimNo102r7c6v1.5.jpg	 r	 3.289	 GoodTrial	 1.5	 bl
35	 6	 0	 x	 LineStimuli//1.5/stimNo125r0c0v1.5.jpg	 r	 3.432	 GoodTrial	 1.5	 bl
36	 6	 0	 x	 LineStimuli//1.5/stimNo137r0c0v1.5.jpg	 r	 2.328	 GoodTrial	 1.5	 bl
37	 6	 1	 right	 LineStimuli//1.5/stimNo82r11c15v1.5.jpg	 r	 1.991	 GoodTrial	 1.5	 bl
38	 6	 0	 x	 LineStimuli//1.5/stimNo144r0c0v1.5.jpg	 r	 1.995	 GoodTrial	 1.5	 bl
39	 6	 1	 left	 LineStimuli//1.5/stimNo113r4c4v1.5.jpg	 r	 2.284	 GoodTrial	 1.5	 bl
40	 6	 0	 x	 LineStimuli//1.5/stimNo138r0c0v1.5.jpg	 r	 1.687	 GoodTrial	 1.5	 bl
41	 6	 0	 x	 LineStimuli//1.5/stimNo139r0c0v1.5.jpg	 r	 3.081	 GoodTrial	 1.5	 bl
42	 6	 1	 right	 LineStimuli//1.5/stimNo93r14c18v1.5.jpg	 r	 1.779	 GoodTrial	 1.5	 bl
43	 6	 0	 x	 LineStimuli//1.5/stimNo126r0c0v1.5.jpg	 r	 2.170	 GoodTrial	 1.5	 bl
44	 6	 0	 x	 LineStimuli//1.5/stimNo153r0c0v1.5.jpg	 l	 1.753	 GoodTrial	 1.5	 bl
45	 6	 1	 right	 LineStimuli//1.5/stimNo86r6c16v1.5.jpg	 r	 2.233	 GoodTrial	 1.5	 bl
46	 6	 0	 x	 LineStimuli//1.5/stimNo147r0c0v1.5.jpg	 r	 1.953	 GoodTrial	 1.5	 bl
47	 6	 1	 left	 LineStimuli//1.5/stimNo117r7c8v1.5.jpg	 r	 1.735	 GoodTrial	 1.5	 bl
48	 6	 0	 x	 LineStimuli//1.5/stimNo155r0c0v1.5.jpg	 r	 2.381	 GoodTrial	 1.5	 bl
49	 6	 1	 left	 LineStimuli//1.5/stimNo99r10c3v1.5.jpg	 r	 1.753	 GoodTrial	 1.5	 bl
50	 6	 1	 left	 LineStimuli//1.5/stimNo109r8c6v1.5.jpg	 r	 1.905	 GoodTrial	 1.5	 bl
1	 7	 1	 right	 LineStimuli//3.8/stimNo92r6c21v3.8.jpg	 l	 1.753	 GoodTrial	 3.8	 bl
2	 7	 1	 right	 LineStimuli//3.8/stimNo99r2c13v3.8.jpg	 r	 1.881	 GoodTrial	 3.8	 bl
3	 7	 1	 left	 LineStimuli//3.8/stimNo93r8c2v3.8.jpg	 l	 1.569	 GoodTrial	 3.8	 bl
4	 7	 0	 x	 LineStimuli//3.8/stimNo126r0c0v3.8.jpg	 r	 1.604	 GoodTrial	 3.8	 bl
5	 7	 1	 left	 LineStimuli//3.8/stimNo100r13c6v3.8.jpg	 l	 1.502	 GoodTrial	 3.8	 bl
6	 7	 1	 right	 LineStimuli//3.8/stimNo94r6c17v3.8.jpg	 l	 1.445	 GoodTrial	 3.8	 bl
7	 7	 0	 x	 LineStimuli//3.8/stimNo125r0c0v3.8.jpg	 r	 1.511	 GoodTrial	 3.8	 bl
8	 7	 1	 left	 LineStimuli//3.8/stimNo113r14c9v3.8.jpg	 l	 1.587	 GoodTrial	 3.8	 bl
9	 7	 1	 left	 LineStimuli//3.8/stimNo120r5c3v3.8.jpg	 l	 1.489	 GoodTrial	 3.8	 bl
10	 7	 0	 x	 LineStimuli//3.8/stimNo148r0c0v3.8.jpg	 r	 1.579	 GoodTrial	 3.8	 bl
11	 7	 0	 x	 LineStimuli//3.8/stimNo127r0c0v3.8.jpg	 r	 1.544	 GoodTrial	 3.8	 bl
12	 7	 1	 right	 LineStimuli//3.8/stimNo90r8c17v3.8.jpg	 l	 1.400	 GoodTrial	 3.8	 bl
13	 7	 0	 x	 LineStimuli//3.8/stimNo137r0c0v3.8.jpg	 r	 1.781	 GoodTrial	 3.8	 bl
14	 7	 1	 right	 LineStimuli//3.8/stimNo81r3c21v3.8.jpg	 l	 1.592	 GoodTrial	 3.8	 bl
15	 7	 0	 x	 LineStimuli//3.8/stimNo156r0c0v3.8.jpg	 r	 1.620	 GoodTrial	 3.8	 bl
16	 7	 0	 x	 LineStimuli//3.8/stimNo138r0c0v3.8.jpg	 r	 1.599	 GoodTrial	 3.8	 bl
17	 7	 0	 x	 LineStimuli//3.8/stimNo146r0c0v3.8.jpg	 r	 1.700	 GoodTrial	 3.8	 bl
18	 7	 0	 x	 LineStimuli//3.8/stimNo136r0c0v3.8.jpg	 r	 1.576	 GoodTrial	 3.8	 bl
19	 7	 0	 x	 LineStimuli//3.8/stimNo122r0c0v3.8.jpg	 r	 1.568	 GoodTrial	 3.8	 bl
20	 7	 1	 left	 LineStimuli//3.8/stimNo115r14c10v3.8.jpg	 l	 1.624	 GoodTrial	 3.8	 bl
21	 7	 0	 x	 LineStimuli//3.8/stimNo131r0c0v3.8.jpg	 r	 1.622	 GoodTrial	 3.8	 bl
22	 7	 1	 left	 LineStimuli//3.8/stimNo109r11c8v3.8.jpg	 l	 1.486	 GoodTrial	 3.8	 bl
23	 7	 0	 x	 LineStimuli//3.8/stimNo139r0c0v3.8.jpg	 r	 1.610	 GoodTrial	 3.8	 bl
24	 7	 0	 x	 LineStimuli//3.8/stimNo121r0c0v3.8.jpg	 r	 1.629	 GoodTrial	 3.8	 bl
25	 7	 1	 left	 LineStimuli//3.8/stimNo89r10c7v3.8.jpg	 l	 1.544	 GoodTrial	 3.8	 bl
26	 7	 1	 right	 LineStimuli//3.8/stimNo114r10c14v3.8.jpg	 l	 1.593	 GoodTrial	 3.8	 bl
27	 7	 1	 left	 LineStimuli//3.8/stimNo116r7c3v3.8.jpg	 l	 1.535	 GoodTrial	 3.8	 bl
28	 7	 1	 right	 LineStimuli//3.8/stimNo102r10c17v3.8.jpg	 l	 1.612	 GoodTrial	 3.8	 bl
29	 7	 1	 left	 LineStimuli//3.8/stimNo104r12c8v3.8.jpg	 l	 1.640	 GoodTrial	 3.8	 bl
30	 7	 1	 left	 LineStimuli//3.8/stimNo86r7c7v3.8.jpg	 l	 1.486	 GoodTrial	 3.8	 bl
31	 7	 0	 x	 LineStimuli//3.8/stimNo132r0c0v3.8.jpg	 r	 1.648	 GoodTrial	 3.8	 bl
32	 7	 0	 x	 LineStimuli//3.8/stimNo145r0c0v3.8.jpg	 r	 1.594	 GoodTrial	 3.8	 bl
33	 7	 1	 left	 LineStimuli//3.8/stimNo108r3c6v3.8.jpg	 l	 1.566	 GoodTrial	 3.8	 bl
34	 7	 1	 left	 LineStimuli//3.8/stimNo118r4c8v3.8.jpg	 l	 1.466	 GoodTrial	 3.8	 bl
35	 7	 1	 right	 LineStimuli//3.8/stimNo101r12c17v3.8.jpg	 l	 1.488	 GoodTrial	 3.8	 bl
36	 7	 1	 left	 LineStimuli//3.8/stimNo119r9c8v3.8.jpg	 l	 1.466	 GoodTrial	 3.8	 bl
37	 7	 0	 x	 LineStimuli//3.8/stimNo159r0c0v3.8.jpg	 r	 1.726	 GoodTrial	 3.8	 bl
38	 7	 0	 x	 LineStimuli//3.8/stimNo124r0c0v3.8.jpg	 r	 1.656	 GoodTrial	 3.8	 bl
39	 7	 1	 right	 LineStimuli//3.8/stimNo88r10c17v3.8.jpg	 l	 1.564	 GoodTrial	 3.8	 bl
40	 7	 1	 right	 LineStimuli//3.8/stimNo95r5c21v3.8.jpg	 l	 1.768	 GoodTrial	 3.8	 bl
41	 7	 0	 x	 LineStimuli//3.8/stimNo160r0c0v3.8.jpg	 r	 1.700	 GoodTrial	 3.8	 bl
42	 7	 0	 x	 LineStimuli//3.8/stimNo123r0c0v3.8.jpg	 r	 1.592	 GoodTrial	 3.8	 bl
43	 7	 0	 x	 LineStimuli//3.8/stimNo154r0c0v3.8.jpg	 r	 1.597	 GoodTrial	 3.8	 bl
44	 7	 1	 left	 LineStimuli//3.8/stimNo106r9c9v3.8.jpg	 l	 1.472	 GoodTrial	 3.8	 bl
45	 7	 0	 x	 LineStimuli//3.8/stimNo129r0c0v3.8.jpg	 r	 1.624	 GoodTrial	 3.8	 bl
46	 7	 1	 left	 LineStimuli//3.8/stimNo83r9c9v3.8.jpg	 l	 1.468	 GoodTrial	 3.8	 bl
47	 7	 0	 x	 LineStimuli//3.8/stimNo142r0c0v3.8.jpg	 r	 1.576	 GoodTrial	 3.8	 bl
48	 7	 0	 x	 LineStimuli//3.8/stimNo153r0c0v3.8.jpg	 r	 1.597	 GoodTrial	 3.8	 bl
49	 7	 1	 right	 LineStimuli//3.8/stimNo117r6c17v3.8.jpg	 l	 1.460	 GoodTrial	 3.8	 bl
50	 7	 0	 x	 LineStimuli//3.8/stimNo152r0c0v3.8.jpg	 r	 1.546	 GoodTrial	 3.8	 bl
