Trial	Block	Target_pr	Target_side	Name	Key	RT	Message	Block_Type	Condition
1	 1	 0	 x	 LineStimuli//3.8/stimNo130r0c0v3.8.jpg	 r	 6.370	 GoodTrial	 3.8	 bl
2	 1	 1	 right	 LineStimuli//3.8/stimNo117r6c17v3.8.jpg	 l	 1.729	 GoodTrial	 3.8	 bl
3	 1	 0	 x	 LineStimuli//3.8/stimNo141r0c0v3.8.jpg	 r	 5.600	 GoodTrial	 3.8	 bl
4	 1	 0	 x	 LineStimuli//3.8/stimNo152r0c0v3.8.jpg	 r	 6.195	 GoodTrial	 3.8	 bl
5	 1	 0	 x	 LineStimuli//3.8/stimNo128r0c0v3.8.jpg	 r	 4.830	 GoodTrial	 3.8	 bl
6	 1	 0	 x	 LineStimuli//3.8/stimNo149r0c0v3.8.jpg	 r	 5.424	 GoodTrial	 3.8	 bl
7	 1	 0	 x	 LineStimuli//3.8/stimNo133r0c0v3.8.jpg	 r	 6.128	 GoodTrial	 3.8	 bl
8	 1	 1	 right	 LineStimuli//3.8/stimNo82r9c21v3.8.jpg	 l	 1.839	 GoodTrial	 3.8	 bl
9	 1	 1	 left	 LineStimuli//3.8/stimNo119r9c8v3.8.jpg	 l	 2.146	 GoodTrial	 3.8	 bl
10	 1	 1	 left	 LineStimuli//3.8/stimNo105r2c6v3.8.jpg	 l	 1.984	 GoodTrial	 3.8	 bl
11	 1	 1	 left	 LineStimuli//3.8/stimNo110r7c9v3.8.jpg	 l	 1.613	 GoodTrial	 3.8	 bl
12	 1	 1	 left	 LineStimuli//3.8/stimNo97r15c9v3.8.jpg	 l	 1.878	 GoodTrial	 3.8	 bl
13	 1	 0	 x	 LineStimuli//3.8/stimNo138r0c0v3.8.jpg	 r	 3.956	 GoodTrial	 3.8	 bl
14	 1	 0	 x	 LineStimuli//3.8/stimNo145r0c0v3.8.jpg	 r	 4.251	 GoodTrial	 3.8	 bl
15	 1	 1	 right	 LineStimuli//3.8/stimNo81r3c21v3.8.jpg	 l	 1.664	 GoodTrial	 3.8	 bl
16	 1	 1	 left	 LineStimuli//3.8/stimNo113r14c9v3.8.jpg	 l	 1.624	 GoodTrial	 3.8	 bl
17	 1	 0	 x	 LineStimuli//3.8/stimNo157r0c0v3.8.jpg	 r	 3.830	 GoodTrial	 3.8	 bl
18	 1	 1	 right	 LineStimuli//3.8/stimNo112r12c16v3.8.jpg	 l	 1.810	 GoodTrial	 3.8	 bl
19	 1	 1	 right	 LineStimuli//3.8/stimNo94r6c17v3.8.jpg	 l	 1.562	 GoodTrial	 3.8	 bl
20	 1	 1	 right	 LineStimuli//3.8/stimNo91r10c16v3.8.jpg	 l	 1.695	 GoodTrial	 3.8	 bl
21	 1	 1	 left	 LineStimuli//3.8/stimNo108r3c6v3.8.jpg	 l	 1.608	 GoodTrial	 3.8	 bl
22	 1	 0	 x	 LineStimuli//3.8/stimNo126r0c0v3.8.jpg	 r	 4.972	 GoodTrial	 3.8	 bl
23	 1	 1	 right	 LineStimuli//3.8/stimNo101r12c17v3.8.jpg	 l	 1.621	 GoodTrial	 3.8	 bl
24	 1	 0	 x	 LineStimuli//3.8/stimNo143r0c0v3.8.jpg	 r	 4.209	 GoodTrial	 3.8	 bl
25	 1	 1	 left	 LineStimuli//3.8/stimNo120r5c3v3.8.jpg	 l	 1.574	 GoodTrial	 3.8	 bl
26	 1	 0	 x	 LineStimuli//3.8/stimNo132r0c0v3.8.jpg	 r	 4.084	 GoodTrial	 3.8	 bl
27	 1	 1	 right	 LineStimuli//3.8/stimNo96r2c13v3.8.jpg	 l	 1.592	 GoodTrial	 3.8	 bl
28	 1	 1	 left	 LineStimuli//3.8/stimNo93r8c2v3.8.jpg	 l	 1.760	 GoodTrial	 3.8	 bl
29	 1	 1	 right	 LineStimuli//3.8/stimNo84r9c19v3.8.jpg	 l	 1.656	 GoodTrial	 3.8	 bl
30	 1	 1	 left	 LineStimuli//3.8/stimNo86r7c7v3.8.jpg	 l	 1.578	 GoodTrial	 3.8	 bl
31	 1	 1	 left	 LineStimuli//3.8/stimNo116r7c3v3.8.jpg	 l	 1.562	 GoodTrial	 3.8	 bl
32	 1	 1	 right	 LineStimuli//3.8/stimNo92r6c21v3.8.jpg	 l	 1.742	 GoodTrial	 3.8	 bl
33	 1	 0	 x	 LineStimuli//3.8/stimNo136r0c0v3.8.jpg	 r	 4.066	 GoodTrial	 3.8	 bl
34	 1	 1	 right	 LineStimuli//3.8/stimNo99r2c13v3.8.jpg	 l	 1.795	 GoodTrial	 3.8	 bl
35	 1	 1	 left	 LineStimuli//3.8/stimNo83r9c9v3.8.jpg	 l	 1.770	 GoodTrial	 3.8	 bl
36	 1	 0	 x	 LineStimuli//3.8/stimNo139r0c0v3.8.jpg	 r	 5.807	 GoodTrial	 3.8	 bl
37	 1	 1	 left	 LineStimuli//3.8/stimNo104r12c8v3.8.jpg	 l	 1.642	 GoodTrial	 3.8	 bl
38	 1	 0	 x	 LineStimuli//3.8/stimNo144r0c0v3.8.jpg	 r	 5.422	 GoodTrial	 3.8	 bl
39	 1	 0	 x	 LineStimuli//3.8/stimNo155r0c0v3.8.jpg	 r	 4.631	 GoodTrial	 3.8	 bl
40	 1	 1	 right	 LineStimuli//3.8/stimNo102r10c17v3.8.jpg	 l	 1.700	 GoodTrial	 3.8	 bl
41	 1	 1	 right	 LineStimuli//3.8/stimNo87r6c13v3.8.jpg	 l	 1.569	 GoodTrial	 3.8	 bl
42	 1	 0	 x	 LineStimuli//3.8/stimNo135r0c0v3.8.jpg	 r	 3.963	 GoodTrial	 3.8	 bl
43	 1	 1	 left	 LineStimuli//3.8/stimNo98r2c9v3.8.jpg	 l	 1.627	 GoodTrial	 3.8	 bl
44	 1	 0	 x	 LineStimuli//3.8/stimNo153r0c0v3.8.jpg	 r	 5.392	 GoodTrial	 3.8	 bl
45	 1	 0	 x	 LineStimuli//3.8/stimNo134r0c0v3.8.jpg	 r	 5.144	 GoodTrial	 3.8	 bl
46	 1	 0	 x	 LineStimuli//3.8/stimNo129r0c0v3.8.jpg	 r	 4.441	 GoodTrial	 3.8	 bl
47	 1	 1	 right	 LineStimuli//3.8/stimNo111r15c20v3.8.jpg	 l	 1.823	 GoodTrial	 3.8	 bl
48	 1	 0	 x	 LineStimuli//3.8/stimNo160r0c0v3.8.jpg	 r	 3.106	 GoodTrial	 3.8	 bl
49	 1	 0	 x	 LineStimuli//3.8/stimNo156r0c0v3.8.jpg	 r	 4.113	 GoodTrial	 3.8	 bl
50	 1	 1	 left	 LineStimuli//3.8/stimNo106r9c9v3.8.jpg	 l	 1.617	 GoodTrial	 3.8	 bl
1	 2	 0	 x	 LineStimuli//3.3/stimNo148r0c0v3.3.jpg	 r	 4.225	 GoodTrial	 3.3	 bl
2	 2	 1	 right	 LineStimuli//3.3/stimNo89r5c21v3.3.jpg	 l	 1.637	 GoodTrial	 3.3	 bl
3	 2	 0	 x	 LineStimuli//3.3/stimNo145r0c0v3.3.jpg	 r	 3.729	 GoodTrial	 3.3	 bl
4	 2	 0	 x	 LineStimuli//3.3/stimNo147r0c0v3.3.jpg	 r	 4.881	 GoodTrial	 3.3	 bl
5	 2	 1	 left	 LineStimuli//3.3/stimNo111r15c7v3.3.jpg	 l	 1.686	 GoodTrial	 3.3	 bl
6	 2	 1	 left	 LineStimuli//3.3/stimNo109r15c7v3.3.jpg	 l	 1.517	 GoodTrial	 3.3	 bl
7	 2	 1	 left	 LineStimuli//3.3/stimNo108r13c2v3.3.jpg	 l	 1.723	 GoodTrial	 3.3	 bl
8	 2	 0	 x	 LineStimuli//3.3/stimNo154r0c0v3.3.jpg	 r	 7.261	 GoodTrial	 3.3	 bl
9	 2	 0	 x	 LineStimuli//3.3/stimNo142r0c0v3.3.jpg	 r	 5.847	 GoodTrial	 3.3	 bl
10	 2	 1	 left	 LineStimuli//3.3/stimNo85r6c4v3.3.jpg	 l	 1.650	 GoodTrial	 3.3	 bl
11	 2	 1	 right	 LineStimuli//3.3/stimNo112r5c15v3.3.jpg	 l	 1.561	 GoodTrial	 3.3	 bl
12	 2	 0	 x	 LineStimuli//3.3/stimNo158r0c0v3.3.jpg	 r	 4.481	 GoodTrial	 3.3	 bl
13	 2	 1	 right	 LineStimuli//3.3/stimNo102r13c13v3.3.jpg	 l	 2.131	 GoodTrial	 3.3	 bl
14	 2	 0	 x	 LineStimuli//3.3/stimNo132r0c0v3.3.jpg	 r	 4.631	 GoodTrial	 3.3	 bl
15	 2	 0	 x	 LineStimuli//3.3/stimNo131r0c0v3.3.jpg	 r	 6.048	 GoodTrial	 3.3	 bl
16	 2	 0	 x	 LineStimuli//3.3/stimNo157r0c0v3.3.jpg	 r	 6.185	 GoodTrial	 3.3	 bl
17	 2	 1	 right	 LineStimuli//3.3/stimNo84r6c16v3.3.jpg	 l	 1.618	 GoodTrial	 3.3	 bl
18	 2	 0	 x	 LineStimuli//3.3/stimNo138r0c0v3.3.jpg	 r	 6.815	 GoodTrial	 3.3	 bl
19	 2	 1	 left	 LineStimuli//3.3/stimNo93r3c5v3.3.jpg	 l	 1.783	 GoodTrial	 3.3	 bl
20	 2	 0	 x	 LineStimuli//3.3/stimNo133r0c0v3.3.jpg	 r	 6.060	 GoodTrial	 3.3	 bl
21	 2	 1	 right	 LineStimuli//3.3/stimNo91r12c16v3.3.jpg	 l	 1.607	 GoodTrial	 3.3	 bl
22	 2	 0	 x	 LineStimuli//3.3/stimNo143r0c0v3.3.jpg	 r	 3.862	 GoodTrial	 3.3	 bl
23	 2	 0	 x	 LineStimuli//3.3/stimNo126r0c0v3.3.jpg	 r	 3.423	 GoodTrial	 3.3	 bl
24	 2	 1	 right	 LineStimuli//3.3/stimNo113r13c15v3.3.jpg	 l	 1.908	 GoodTrial	 3.3	 bl
25	 2	 1	 left	 LineStimuli//3.3/stimNo119r15c7v3.3.jpg	 l	 1.733	 GoodTrial	 3.3	 bl
26	 2	 1	 left	 LineStimuli//3.3/stimNo103r6c6v3.3.jpg	 l	 1.534	 GoodTrial	 3.3	 bl
27	 2	 1	 right	 LineStimuli//3.3/stimNo105r7c20v3.3.jpg	 l	 1.572	 GoodTrial	 3.3	 bl
28	 2	 0	 x	 LineStimuli//3.3/stimNo140r0c0v3.3.jpg	 r	 3.272	 GoodTrial	 3.3	 bl
29	 2	 1	 left	 LineStimuli//3.3/stimNo104r4c4v3.3.jpg	 l	 1.568	 GoodTrial	 3.3	 bl
30	 2	 1	 right	 LineStimuli//3.3/stimNo87r15c13v3.3.jpg	 l	 1.730	 GoodTrial	 3.3	 bl
31	 2	 0	 x	 LineStimuli//3.3/stimNo146r0c0v3.3.jpg	 r	 3.065	 GoodTrial	 3.3	 bl
32	 2	 1	 left	 LineStimuli//3.3/stimNo86r5c7v3.3.jpg	 l	 1.512	 GoodTrial	 3.3	 bl
33	 2	 0	 x	 LineStimuli//3.3/stimNo144r0c0v3.3.jpg	 r	 3.164	 GoodTrial	 3.3	 bl
34	 2	 0	 x	 LineStimuli//3.3/stimNo137r0c0v3.3.jpg	 r	 3.632	 GoodTrial	 3.3	 bl
35	 2	 1	 left	 LineStimuli//3.3/stimNo110r4c3v3.3.jpg	 l	 1.542	 GoodTrial	 3.3	 bl
36	 2	 1	 right	 LineStimuli//3.3/stimNo118r3c16v3.3.jpg	 l	 1.562	 GoodTrial	 3.3	 bl
37	 2	 0	 x	 LineStimuli//3.3/stimNo124r0c0v3.3.jpg	 r	 3.836	 GoodTrial	 3.3	 bl
38	 2	 0	 x	 LineStimuli//3.3/stimNo141r0c0v3.3.jpg	 r	 5.814	 GoodTrial	 3.3	 bl
39	 2	 0	 x	 LineStimuli//3.3/stimNo160r0c0v3.3.jpg	 r	 4.989	 GoodTrial	 3.3	 bl
40	 2	 1	 left	 LineStimuli//3.3/stimNo90r2c9v3.3.jpg	 l	 1.794	 GoodTrial	 3.3	 bl
41	 2	 1	 right	 LineStimuli//3.3/stimNo120r8c14v3.3.jpg	 l	 1.756	 GoodTrial	 3.3	 bl
42	 2	 0	 x	 LineStimuli//3.3/stimNo121r0c0v3.3.jpg	 r	 8.030	 GoodTrial	 3.3	 bl
43	 2	 0	 x	 LineStimuli//3.3/stimNo125r0c0v3.3.jpg	 r	 6.581	 GoodTrial	 3.3	 bl
44	 2	 1	 right	 LineStimuli//3.3/stimNo114r11c21v3.3.jpg	 l	 1.628	 GoodTrial	 3.3	 bl
45	 2	 0	 x	 LineStimuli//3.3/stimNo155r0c0v3.3.jpg	 r	 5.075	 GoodTrial	 3.3	 bl
46	 2	 0	 x	 LineStimuli//3.3/stimNo122r0c0v3.3.jpg	 r	 3.648	 GoodTrial	 3.3	 bl
47	 2	 1	 left	 LineStimuli//3.3/stimNo95r15c8v3.3.jpg	 l	 1.808	 GoodTrial	 3.3	 bl
48	 2	 0	 x	 LineStimuli//3.3/stimNo139r0c0v3.3.jpg	 r	 4.392	 GoodTrial	 3.3	 bl
49	 2	 1	 right	 LineStimuli//3.3/stimNo96r8c18v3.3.jpg	 l	 2.144	 GoodTrial	 3.3	 bl
50	 2	 1	 right	 LineStimuli//3.3/stimNo97r6c13v3.3.jpg	 l	 1.624	 GoodTrial	 3.3	 bl
1	 3	 0	 x	 LineStimuli//4.3/stimNo131r0c0v4.3.jpg	 r	 4.677	 GoodTrial	 4.3	 bl
2	 3	 0	 x	 LineStimuli//4.3/stimNo122r0c0v4.3.jpg	 r	 3.408	 GoodTrial	 4.3	 bl
3	 3	 0	 x	 LineStimuli//4.3/stimNo156r0c0v4.3.jpg	 r	 2.909	 GoodTrial	 4.3	 bl
4	 3	 1	 left	 LineStimuli//4.3/stimNo105r14c6v4.3.jpg	 l	 1.729	 GoodTrial	 4.3	 bl
5	 3	 0	 x	 LineStimuli//4.3/stimNo133r0c0v4.3.jpg	 r	 2.773	 GoodTrial	 4.3	 bl
6	 3	 1	 right	 LineStimuli//4.3/stimNo102r10c19v4.3.jpg	 l	 1.591	 GoodTrial	 4.3	 bl
7	 3	 0	 x	 LineStimuli//4.3/stimNo126r0c0v4.3.jpg	 r	 3.385	 GoodTrial	 4.3	 bl
8	 3	 1	 right	 LineStimuli//4.3/stimNo84r15c20v4.3.jpg	 l	 2.081	 GoodTrial	 4.3	 bl
9	 3	 0	 x	 LineStimuli//4.3/stimNo154r0c0v4.3.jpg	 r	 3.769	 GoodTrial	 4.3	 bl
10	 3	 0	 x	 LineStimuli//4.3/stimNo135r0c0v4.3.jpg	 r	 4.295	 GoodTrial	 4.3	 bl
11	 3	 1	 left	 LineStimuli//4.3/stimNo107r2c8v4.3.jpg	 l	 1.555	 GoodTrial	 4.3	 bl
12	 3	 1	 left	 LineStimuli//4.3/stimNo83r4c2v4.3.jpg	 l	 1.579	 GoodTrial	 4.3	 bl
13	 3	 1	 right	 LineStimuli//4.3/stimNo89r3c17v4.3.jpg	 l	 1.600	 GoodTrial	 4.3	 bl
14	 3	 0	 x	 LineStimuli//4.3/stimNo129r0c0v4.3.jpg	 r	 4.597	 GoodTrial	 4.3	 bl
15	 3	 0	 x	 LineStimuli//4.3/stimNo144r0c0v4.3.jpg	 r	 4.176	 GoodTrial	 4.3	 bl
16	 3	 1	 right	 LineStimuli//4.3/stimNo112r10c16v4.3.jpg	 l	 1.574	 GoodTrial	 4.3	 bl
17	 3	 1	 right	 LineStimuli//4.3/stimNo92r2c20v4.3.jpg	 l	 1.589	 GoodTrial	 4.3	 bl
18	 3	 1	 left	 LineStimuli//4.3/stimNo93r9c9v4.3.jpg	 l	 1.523	 GoodTrial	 4.3	 bl
19	 3	 1	 right	 LineStimuli//4.3/stimNo119r12c17v4.3.jpg	 l	 1.513	 GoodTrial	 4.3	 bl
20	 3	 1	 right	 LineStimuli//4.3/stimNo118r11c13v4.3.jpg	 l	 1.530	 GoodTrial	 4.3	 bl
21	 3	 1	 left	 LineStimuli//4.3/stimNo95r11c9v4.3.jpg	 l	 1.493	 GoodTrial	 4.3	 bl
22	 3	 1	 right	 LineStimuli//4.3/stimNo117r10c21v4.3.jpg	 l	 1.441	 GoodTrial	 4.3	 bl
23	 3	 1	 left	 LineStimuli//4.3/stimNo104r15c2v4.3.jpg	 l	 1.583	 GoodTrial	 4.3	 bl
24	 3	 0	 x	 LineStimuli//4.3/stimNo146r0c0v4.3.jpg	 r	 4.770	 GoodTrial	 4.3	 bl
25	 3	 0	 x	 LineStimuli//4.3/stimNo158r0c0v4.3.jpg	 r	 4.545	 GoodTrial	 4.3	 bl
26	 3	 1	 right	 LineStimuli//4.3/stimNo97r6c21v4.3.jpg	 l	 1.599	 GoodTrial	 4.3	 bl
27	 3	 0	 x	 LineStimuli//4.3/stimNo139r0c0v4.3.jpg	 r	 3.476	 GoodTrial	 4.3	 bl
28	 3	 1	 left	 LineStimuli//4.3/stimNo87r3c5v4.3.jpg	 l	 2.322	 GoodTrial	 4.3	 bl
29	 3	 1	 left	 LineStimuli//4.3/stimNo100r8c3v4.3.jpg	 l	 1.852	 GoodTrial	 4.3	 bl
30	 3	 1	 left	 LineStimuli//4.3/stimNo113r11c7v4.3.jpg	 l	 1.558	 GoodTrial	 4.3	 bl
31	 3	 1	 right	 LineStimuli//4.3/stimNo116r5c13v4.3.jpg	 l	 1.559	 GoodTrial	 4.3	 bl
32	 3	 1	 right	 LineStimuli//4.3/stimNo96r4c19v4.3.jpg	 l	 1.536	 GoodTrial	 4.3	 bl
33	 3	 1	 right	 LineStimuli//4.3/stimNo82r7c18v4.3.jpg	 l	 1.476	 GoodTrial	 4.3	 bl
34	 3	 0	 x	 LineStimuli//4.3/stimNo141r0c0v4.3.jpg	 r	 3.233	 GoodTrial	 4.3	 bl
35	 3	 0	 x	 LineStimuli//4.3/stimNo140r0c0v4.3.jpg	 r	 4.168	 GoodTrial	 4.3	 bl
36	 3	 0	 x	 LineStimuli//4.3/stimNo153r0c0v4.3.jpg	 r	 4.632	 GoodTrial	 4.3	 bl
37	 3	 0	 x	 LineStimuli//4.3/stimNo128r0c0v4.3.jpg	 r	 4.645	 GoodTrial	 4.3	 bl
38	 3	 0	 x	 LineStimuli//4.3/stimNo121r0c0v4.3.jpg	 r	 4.486	 GoodTrial	 4.3	 bl
39	 3	 1	 left	 LineStimuli//4.3/stimNo110r6c7v4.3.jpg	 r	 2.498	 GoodTrial	 4.3	 bl
40	 3	 0	 x	 LineStimuli//4.3/stimNo134r0c0v4.3.jpg	 r	 3.345	 GoodTrial	 4.3	 bl
41	 3	 1	 right	 LineStimuli//4.3/stimNo81r10c14v4.3.jpg	 l	 1.676	 GoodTrial	 4.3	 bl
42	 3	 0	 x	 LineStimuli//4.3/stimNo159r0c0v4.3.jpg	 r	 2.960	 GoodTrial	 4.3	 bl
43	 3	 1	 right	 LineStimuli//4.3/stimNo94r12c13v4.3.jpg	 l	 1.738	 GoodTrial	 4.3	 bl
44	 3	 1	 right	 LineStimuli//4.3/stimNo109r15c15v4.3.jpg	 l	 1.712	 GoodTrial	 4.3	 bl
45	 3	 1	 left	 LineStimuli//4.3/stimNo101r5c5v4.3.jpg	 l	 1.600	 GoodTrial	 4.3	 bl
46	 3	 1	 left	 LineStimuli//4.3/stimNo88r10c3v4.3.jpg	 l	 1.550	 GoodTrial	 4.3	 bl
47	 3	 1	 left	 LineStimuli//4.3/stimNo90r10c4v4.3.jpg	 l	 1.616	 GoodTrial	 4.3	 bl
48	 3	 0	 x	 LineStimuli//4.3/stimNo127r0c0v4.3.jpg	 r	 4.896	 GoodTrial	 4.3	 bl
49	 3	 0	 x	 LineStimuli//4.3/stimNo150r0c0v4.3.jpg	 r	 3.446	 GoodTrial	 4.3	 bl
50	 3	 1	 right	 LineStimuli//4.3/stimNo99r14c18v4.3.jpg	 l	 1.658	 GoodTrial	 4.3	 bl
1	 4	 0	 x	 LineStimuli//2.3/stimNo147r0c0v2.3.jpg	 r	 3.713	 GoodTrial	 2.3	 bl
2	 4	 1	 right	 LineStimuli//2.3/stimNo93r4c16v2.3.jpg	 l	 1.637	 GoodTrial	 2.3	 bl
3	 4	 0	 x	 LineStimuli//2.3/stimNo122r0c0v2.3.jpg	 r	 6.289	 GoodTrial	 2.3	 bl
4	 4	 0	 x	 LineStimuli//2.3/stimNo129r0c0v2.3.jpg	 r	 5.003	 GoodTrial	 2.3	 bl
5	 4	 1	 left	 LineStimuli//2.3/stimNo117r11c8v2.3.jpg	 l	 2.298	 GoodTrial	 2.3	 bl
6	 4	 1	 left	 LineStimuli//2.3/stimNo115r7c3v2.3.jpg	 l	 1.826	 GoodTrial	 2.3	 bl
7	 4	 0	 x	 LineStimuli//2.3/stimNo123r0c0v2.3.jpg	 r	 4.177	 GoodTrial	 2.3	 bl
8	 4	 1	 right	 LineStimuli//2.3/stimNo101r8c14v2.3.jpg	 l	 1.745	 GoodTrial	 2.3	 bl
9	 4	 0	 x	 LineStimuli//2.3/stimNo128r0c0v2.3.jpg	 r	 3.601	 GoodTrial	 2.3	 bl
10	 4	 0	 x	 LineStimuli//2.3/stimNo131r0c0v2.3.jpg	 r	 4.145	 GoodTrial	 2.3	 bl
11	 4	 0	 x	 LineStimuli//2.3/stimNo139r0c0v2.3.jpg	 r	 3.329	 GoodTrial	 2.3	 bl
12	 4	 1	 left	 LineStimuli//2.3/stimNo97r3c3v2.3.jpg	 l	 1.943	 GoodTrial	 2.3	 bl
13	 4	 0	 x	 LineStimuli//2.3/stimNo150r0c0v2.3.jpg	 r	 3.325	 GoodTrial	 2.3	 bl
14	 4	 1	 left	 LineStimuli//2.3/stimNo116r2c2v2.3.jpg	 l	 1.593	 GoodTrial	 2.3	 bl
15	 4	 1	 right	 LineStimuli//2.3/stimNo91r11c20v2.3.jpg	 l	 1.766	 GoodTrial	 2.3	 bl
16	 4	 1	 right	 LineStimuli//2.3/stimNo118r4c17v2.3.jpg	 l	 1.661	 GoodTrial	 2.3	 bl
17	 4	 1	 left	 LineStimuli//2.3/stimNo113r3c8v2.3.jpg	 l	 1.569	 GoodTrial	 2.3	 bl
18	 4	 1	 left	 LineStimuli//2.3/stimNo119r3c2v2.3.jpg	 l	 1.570	 GoodTrial	 2.3	 bl
19	 4	 0	 x	 LineStimuli//2.3/stimNo142r0c0v2.3.jpg	 r	 2.790	 GoodTrial	 2.3	 bl
20	 4	 1	 right	 LineStimuli//2.3/stimNo85r4c15v2.3.jpg	 l	 1.581	 GoodTrial	 2.3	 bl
21	 4	 1	 right	 LineStimuli//2.3/stimNo120r4c17v2.3.jpg	 l	 1.540	 GoodTrial	 2.3	 bl
22	 4	 0	 x	 LineStimuli//2.3/stimNo156r0c0v2.3.jpg	 r	 3.788	 GoodTrial	 2.3	 bl
23	 4	 1	 right	 LineStimuli//2.3/stimNo87r13c19v2.3.jpg	 l	 1.677	 GoodTrial	 2.3	 bl
24	 4	 0	 x	 LineStimuli//2.3/stimNo149r0c0v2.3.jpg	 r	 3.947	 GoodTrial	 2.3	 bl
25	 4	 0	 x	 LineStimuli//2.3/stimNo132r0c0v2.3.jpg	 r	 2.669	 GoodTrial	 2.3	 bl
26	 4	 0	 x	 LineStimuli//2.3/stimNo144r0c0v2.3.jpg	 r	 2.850	 GoodTrial	 2.3	 bl
27	 4	 0	 x	 LineStimuli//2.3/stimNo134r0c0v2.3.jpg	 r	 2.057	 GoodTrial	 2.3	 bl
28	 4	 0	 x	 LineStimuli//2.3/stimNo124r0c0v2.3.jpg	 r	 1.888	 GoodTrial	 2.3	 bl
29	 4	 0	 x	 LineStimuli//2.3/stimNo138r0c0v2.3.jpg	 r	 1.721	 GoodTrial	 2.3	 bl
30	 4	 1	 left	 LineStimuli//2.3/stimNo104r2c4v2.3.jpg	 l	 1.869	 GoodTrial	 2.3	 bl
31	 4	 1	 left	 LineStimuli//2.3/stimNo100r8c6v2.3.jpg	 l	 1.696	 GoodTrial	 2.3	 bl
32	 4	 0	 x	 LineStimuli//2.3/stimNo135r0c0v2.3.jpg	 r	 2.039	 GoodTrial	 2.3	 bl
33	 4	 0	 x	 LineStimuli//2.3/stimNo136r0c0v2.3.jpg	 r	 3.720	 GoodTrial	 2.3	 bl
34	 4	 0	 x	 LineStimuli//2.3/stimNo157r0c0v2.3.jpg	 r	 3.940	 GoodTrial	 2.3	 bl
35	 4	 0	 x	 LineStimuli//2.3/stimNo130r0c0v2.3.jpg	 r	 4.357	 GoodTrial	 2.3	 bl
36	 4	 0	 x	 LineStimuli//2.3/stimNo137r0c0v2.3.jpg	 r	 3.053	 GoodTrial	 2.3	 bl
37	 4	 1	 right	 LineStimuli//2.3/stimNo110r15c19v2.3.jpg	 l	 2.058	 GoodTrial	 2.3	 bl
38	 4	 1	 right	 LineStimuli//2.3/stimNo84r15c14v2.3.jpg	 l	 2.432	 GoodTrial	 2.3	 bl
39	 4	 1	 right	 LineStimuli//2.3/stimNo89r8c21v2.3.jpg	 l	 1.638	 GoodTrial	 2.3	 bl
40	 4	 1	 right	 LineStimuli//2.3/stimNo109r2c17v2.3.jpg	 l	 1.698	 GoodTrial	 2.3	 bl
41	 4	 0	 x	 LineStimuli//2.3/stimNo121r0c0v2.3.jpg	 r	 6.072	 GoodTrial	 2.3	 bl
42	 4	 1	 right	 LineStimuli//2.3/stimNo99r2c13v2.3.jpg	 l	 1.628	 GoodTrial	 2.3	 bl
43	 4	 0	 x	 LineStimuli//2.3/stimNo158r0c0v2.3.jpg	 r	 1.944	 GoodTrial	 2.3	 bl
44	 4	 0	 x	 LineStimuli//2.3/stimNo146r0c0v2.3.jpg	 r	 2.420	 GoodTrial	 2.3	 bl
45	 4	 0	 x	 LineStimuli//2.3/stimNo141r0c0v2.3.jpg	 r	 3.408	 GoodTrial	 2.3	 bl
46	 4	 1	 left	 LineStimuli//2.3/stimNo96r3c3v2.3.jpg	 l	 1.732	 GoodTrial	 2.3	 bl
47	 4	 1	 right	 LineStimuli//2.3/stimNo103r11c21v2.3.jpg	 l	 2.256	 GoodTrial	 2.3	 bl
48	 4	 1	 left	 LineStimuli//2.3/stimNo83r14c4v2.3.jpg	 l	 1.685	 GoodTrial	 2.3	 bl
49	 4	 1	 right	 LineStimuli//2.3/stimNo105r14c14v2.3.jpg	 l	 1.954	 GoodTrial	 2.3	 bl
50	 4	 1	 right	 LineStimuli//2.3/stimNo98r12c21v2.3.jpg	 l	 1.544	 GoodTrial	 2.3	 bl
1	 5	 0	 x	 LineStimuli//2.8/stimNo125r0c0v2.8.jpg	 r	 4.218	 GoodTrial	 2.8	 bl
2	 5	 0	 x	 LineStimuli//2.8/stimNo139r0c0v2.8.jpg	 r	 3.816	 GoodTrial	 2.8	 bl
3	 5	 1	 right	 LineStimuli//2.8/stimNo110r7c14v2.8.jpg	 l	 2.216	 GoodTrial	 2.8	 bl
4	 5	 1	 left	 LineStimuli//2.8/stimNo96r6c9v2.8.jpg	 l	 1.551	 GoodTrial	 2.8	 bl
5	 5	 0	 x	 LineStimuli//2.8/stimNo122r0c0v2.8.jpg	 r	 4.112	 GoodTrial	 2.8	 bl
6	 5	 1	 right	 LineStimuli//2.8/stimNo101r12c16v2.8.jpg	 l	 1.662	 GoodTrial	 2.8	 bl
7	 5	 0	 x	 LineStimuli//2.8/stimNo126r0c0v2.8.jpg	 r	 4.136	 GoodTrial	 2.8	 bl
8	 5	 0	 x	 LineStimuli//2.8/stimNo131r0c0v2.8.jpg	 r	 3.099	 GoodTrial	 2.8	 bl
9	 5	 0	 x	 LineStimuli//2.8/stimNo136r0c0v2.8.jpg	 r	 3.273	 GoodTrial	 2.8	 bl
10	 5	 1	 right	 LineStimuli//2.8/stimNo111r9c15v2.8.jpg	 l	 1.873	 GoodTrial	 2.8	 bl
11	 5	 0	 x	 LineStimuli//2.8/stimNo123r0c0v2.8.jpg	 r	 2.470	 GoodTrial	 2.8	 bl
12	 5	 1	 left	 LineStimuli//2.8/stimNo97r11c4v2.8.jpg	 l	 1.653	 GoodTrial	 2.8	 bl
13	 5	 1	 right	 LineStimuli//2.8/stimNo100r8c13v2.8.jpg	 l	 1.593	 GoodTrial	 2.8	 bl
14	 5	 0	 x	 LineStimuli//2.8/stimNo144r0c0v2.8.jpg	 r	 4.404	 GoodTrial	 2.8	 bl
15	 5	 0	 x	 LineStimuli//2.8/stimNo130r0c0v2.8.jpg	 r	 3.069	 GoodTrial	 2.8	 bl
16	 5	 0	 x	 LineStimuli//2.8/stimNo142r0c0v2.8.jpg	 r	 2.872	 GoodTrial	 2.8	 bl
17	 5	 0	 x	 LineStimuli//2.8/stimNo135r0c0v2.8.jpg	 r	 3.545	 GoodTrial	 2.8	 bl
18	 5	 1	 right	 LineStimuli//2.8/stimNo106r13c20v2.8.jpg	 l	 1.625	 GoodTrial	 2.8	 bl
19	 5	 1	 right	 LineStimuli//2.8/stimNo117r11c17v2.8.jpg	 l	 1.573	 GoodTrial	 2.8	 bl
20	 5	 1	 right	 LineStimuli//2.8/stimNo93r9c20v2.8.jpg	 l	 1.547	 GoodTrial	 2.8	 bl
21	 5	 0	 x	 LineStimuli//2.8/stimNo147r0c0v2.8.jpg	 r	 3.935	 GoodTrial	 2.8	 bl
22	 5	 1	 right	 LineStimuli//2.8/stimNo109r6c18v2.8.jpg	 l	 1.735	 GoodTrial	 2.8	 bl
23	 5	 0	 x	 LineStimuli//2.8/stimNo143r0c0v2.8.jpg	 r	 2.999	 GoodTrial	 2.8	 bl
24	 5	 1	 left	 LineStimuli//2.8/stimNo89r12c4v2.8.jpg	 l	 1.683	 GoodTrial	 2.8	 bl
25	 5	 0	 x	 LineStimuli//2.8/stimNo157r0c0v2.8.jpg	 r	 2.951	 GoodTrial	 2.8	 bl
26	 5	 1	 left	 LineStimuli//2.8/stimNo94r13c7v2.8.jpg	 l	 1.713	 GoodTrial	 2.8	 bl
27	 5	 1	 left	 LineStimuli//2.8/stimNo86r15c6v2.8.jpg	 l	 1.804	 GoodTrial	 2.8	 bl
28	 5	 1	 left	 LineStimuli//2.8/stimNo83r12c4v2.8.jpg	 l	 1.525	 GoodTrial	 2.8	 bl
29	 5	 1	 right	 LineStimuli//2.8/stimNo92r14c21v2.8.jpg	 l	 1.627	 GoodTrial	 2.8	 bl
30	 5	 1	 right	 LineStimuli//2.8/stimNo81r8c14v2.8.jpg	 l	 1.539	 GoodTrial	 2.8	 bl
31	 5	 1	 left	 LineStimuli//2.8/stimNo105r5c4v2.8.jpg	 l	 1.861	 GoodTrial	 2.8	 bl
32	 5	 1	 left	 LineStimuli//2.8/stimNo107r5c6v2.8.jpg	 l	 1.537	 GoodTrial	 2.8	 bl
33	 5	 0	 x	 LineStimuli//2.8/stimNo154r0c0v2.8.jpg	 r	 6.045	 GoodTrial	 2.8	 bl
34	 5	 0	 x	 LineStimuli//2.8/stimNo151r0c0v2.8.jpg	 r	 5.601	 GoodTrial	 2.8	 bl
35	 5	 1	 left	 LineStimuli//2.8/stimNo91r2c3v2.8.jpg	 l	 1.599	 GoodTrial	 2.8	 bl
36	 5	 0	 x	 LineStimuli//2.8/stimNo146r0c0v2.8.jpg	 r	 3.539	 GoodTrial	 2.8	 bl
37	 5	 1	 left	 LineStimuli//2.8/stimNo102r3c2v2.8.jpg	 l	 1.544	 GoodTrial	 2.8	 bl
38	 5	 1	 left	 LineStimuli//2.8/stimNo116r4c7v2.8.jpg	 l	 1.536	 GoodTrial	 2.8	 bl
39	 5	 0	 x	 LineStimuli//2.8/stimNo152r0c0v2.8.jpg	 r	 2.960	 GoodTrial	 2.8	 bl
40	 5	 0	 x	 LineStimuli//2.8/stimNo134r0c0v2.8.jpg	 r	 2.562	 GoodTrial	 2.8	 bl
41	 5	 0	 x	 LineStimuli//2.8/stimNo121r0c0v2.8.jpg	 r	 3.488	 GoodTrial	 2.8	 bl
42	 5	 1	 left	 LineStimuli//2.8/stimNo82r4c6v2.8.jpg	 l	 1.516	 GoodTrial	 2.8	 bl
43	 5	 1	 left	 LineStimuli//2.8/stimNo119r8c5v2.8.jpg	 l	 1.546	 GoodTrial	 2.8	 bl
44	 5	 0	 x	 LineStimuli//2.8/stimNo145r0c0v2.8.jpg	 r	 4.718	 GoodTrial	 2.8	 bl
45	 5	 0	 x	 LineStimuli//2.8/stimNo138r0c0v2.8.jpg	 r	 2.445	 GoodTrial	 2.8	 bl
46	 5	 0	 x	 LineStimuli//2.8/stimNo141r0c0v2.8.jpg	 r	 2.734	 GoodTrial	 2.8	 bl
47	 5	 1	 right	 LineStimuli//2.8/stimNo90r13c21v2.8.jpg	 l	 1.624	 GoodTrial	 2.8	 bl
48	 5	 0	 x	 LineStimuli//2.8/stimNo124r0c0v2.8.jpg	 r	 4.891	 GoodTrial	 2.8	 bl
49	 5	 1	 left	 LineStimuli//2.8/stimNo104r8c6v2.8.jpg	 l	 1.528	 GoodTrial	 2.8	 bl
50	 5	 0	 x	 LineStimuli//2.8/stimNo149r0c0v2.8.jpg	 r	 5.049	 GoodTrial	 2.8	 bl
1	 6	 0	 x	 LineStimuli//1.8/stimNo157r0c0v1.8.jpg	 r	 6.496	 GoodTrial	 1.8	 bl
2	 6	 1	 right	 LineStimuli//1.8/stimNo97r15c18v1.8.jpg	 l	 2.792	 GoodTrial	 1.8	 bl
3	 6	 0	 x	 LineStimuli//1.8/stimNo152r0c0v1.8.jpg	 r	 5.480	 GoodTrial	 1.8	 bl
4	 6	 1	 left	 LineStimuli//1.8/stimNo96r13c2v1.8.jpg	 l	 2.856	 GoodTrial	 1.8	 bl
5	 6	 0	 x	 LineStimuli//1.8/stimNo156r0c0v1.8.jpg	 r	 4.112	 GoodTrial	 1.8	 bl
6	 6	 1	 right	 LineStimuli//1.8/stimNo90r15c13v1.8.jpg	 l	 1.930	 GoodTrial	 1.8	 bl
7	 6	 0	 x	 LineStimuli//1.8/stimNo135r0c0v1.8.jpg	 r	 5.920	 GoodTrial	 1.8	 bl
8	 6	 0	 x	 LineStimuli//1.8/stimNo138r0c0v1.8.jpg	 r	 4.273	 GoodTrial	 1.8	 bl
9	 6	 0	 x	 LineStimuli//1.8/stimNo132r0c0v1.8.jpg	 r	 5.549	 GoodTrial	 1.8	 bl
10	 6	 0	 x	 LineStimuli//1.8/stimNo142r0c0v1.8.jpg	 r	 3.707	 GoodTrial	 1.8	 bl
11	 6	 0	 x	 LineStimuli//1.8/stimNo155r0c0v1.8.jpg	 r	 2.649	 GoodTrial	 1.8	 bl
12	 6	 0	 x	 LineStimuli//1.8/stimNo150r0c0v1.8.jpg	 r	 4.451	 GoodTrial	 1.8	 bl
13	 6	 1	 left	 LineStimuli//1.8/stimNo98r15c5v1.8.jpg	 l	 1.803	 GoodTrial	 1.8	 bl
14	 6	 1	 left	 LineStimuli//1.8/stimNo85r13c2v1.8.jpg	 l	 2.005	 GoodTrial	 1.8	 bl
15	 6	 1	 right	 LineStimuli//1.8/stimNo93r3c17v1.8.jpg	 l	 4.889	 GoodTrial	 1.8	 bl
16	 6	 1	 right	 LineStimuli//1.8/stimNo82r7c18v1.8.jpg	 l	 3.579	 GoodTrial	 1.8	 bl
17	 6	 0	 x	 LineStimuli//1.8/stimNo129r0c0v1.8.jpg	 r	 7.267	 GoodTrial	 1.8	 bl
18	 6	 0	 x	 LineStimuli//1.8/stimNo144r0c0v1.8.jpg	 r	 3.312	 GoodTrial	 1.8	 bl
19	 6	 1	 right	 LineStimuli//1.8/stimNo99r12c16v1.8.jpg	 l	 4.433	 GoodTrial	 1.8	 bl
20	 6	 1	 left	 LineStimuli//1.8/stimNo105r6c5v1.8.jpg	 l	 1.570	 GoodTrial	 1.8	 bl
21	 6	 0	 x	 LineStimuli//1.8/stimNo141r0c0v1.8.jpg	 r	 3.407	 GoodTrial	 1.8	 bl
22	 6	 1	 right	 LineStimuli//1.8/stimNo118r11c15v1.8.jpg	 l	 2.707	 GoodTrial	 1.8	 bl
23	 6	 0	 x	 LineStimuli//1.8/stimNo145r0c0v1.8.jpg	 r	 3.405	 GoodTrial	 1.8	 bl
24	 6	 1	 left	 LineStimuli//1.8/stimNo91r14c4v1.8.jpg	 l	 1.689	 GoodTrial	 1.8	 bl
25	 6	 1	 left	 LineStimuli//1.8/stimNo120r14c9v1.8.jpg	 l	 2.097	 GoodTrial	 1.8	 bl
26	 6	 0	 x	 LineStimuli//1.8/stimNo153r0c0v1.8.jpg	 r	 5.047	 GoodTrial	 1.8	 bl
27	 6	 0	 x	 LineStimuli//1.8/stimNo154r0c0v1.8.jpg	 r	 3.265	 GoodTrial	 1.8	 bl
28	 6	 1	 left	 LineStimuli//1.8/stimNo115r5c9v1.8.jpg	 l	 1.985	 GoodTrial	 1.8	 bl
29	 6	 0	 x	 LineStimuli//1.8/stimNo137r0c0v1.8.jpg	 r	 2.239	 GoodTrial	 1.8	 bl
30	 6	 1	 left	 LineStimuli//1.8/stimNo87r14c2v1.8.jpg	 l	 1.841	 GoodTrial	 1.8	 bl
31	 6	 1	 right	 LineStimuli//1.8/stimNo83r6c13v1.8.jpg	 l	 2.253	 GoodTrial	 1.8	 bl
32	 6	 0	 x	 LineStimuli//1.8/stimNo151r0c0v1.8.jpg	 r	 6.558	 GoodTrial	 1.8	 bl
33	 6	 0	 x	 LineStimuli//1.8/stimNo130r0c0v1.8.jpg	 r	 5.528	 GoodTrial	 1.8	 bl
34	 6	 1	 right	 LineStimuli//1.8/stimNo119r3c21v1.8.jpg	 l	 1.777	 GoodTrial	 1.8	 bl
35	 6	 0	 x	 LineStimuli//1.8/stimNo159r0c0v1.8.jpg	 r	 4.413	 GoodTrial	 1.8	 bl
36	 6	 0	 x	 LineStimuli//1.8/stimNo121r0c0v1.8.jpg	 r	 3.198	 GoodTrial	 1.8	 bl
37	 6	 1	 left	 LineStimuli//1.8/stimNo95r4c9v1.8.jpg	 l	 1.964	 GoodTrial	 1.8	 bl
38	 6	 1	 left	 LineStimuli//1.8/stimNo113r6c7v1.8.jpg	 r	 4.847	 GoodTrial	 1.8	 bl
39	 6	 1	 left	 LineStimuli//1.8/stimNo81r6c8v1.8.jpg	 l	 2.351	 GoodTrial	 1.8	 bl
40	 6	 1	 right	 LineStimuli//1.8/stimNo108r9c21v1.8.jpg	 l	 2.057	 GoodTrial	 1.8	 bl
41	 6	 1	 right	 LineStimuli//1.8/stimNo109r7c17v1.8.jpg	 l	 1.578	 GoodTrial	 1.8	 bl
42	 6	 1	 right	 LineStimuli//1.8/stimNo84r11c21v1.8.jpg	 l	 2.287	 GoodTrial	 1.8	 bl
43	 6	 0	 x	 LineStimuli//1.8/stimNo136r0c0v1.8.jpg	 r	 4.702	 GoodTrial	 1.8	 bl
44	 6	 1	 left	 LineStimuli//1.8/stimNo103r15c10v1.8.jpg	 l	 3.248	 GoodTrial	 1.8	 bl
45	 6	 0	 x	 LineStimuli//1.8/stimNo126r0c0v1.8.jpg	 r	 5.648	 GoodTrial	 1.8	 bl
46	 6	 0	 x	 LineStimuli//1.8/stimNo149r0c0v1.8.jpg	 r	 2.693	 GoodTrial	 1.8	 bl
47	 6	 1	 left	 LineStimuli//1.8/stimNo107r5c4v1.8.jpg	 l	 1.700	 GoodTrial	 1.8	 bl
48	 6	 1	 left	 LineStimuli//1.8/stimNo89r11c6v1.8.jpg	 l	 2.455	 GoodTrial	 1.8	 bl
49	 6	 0	 x	 LineStimuli//1.8/stimNo148r0c0v1.8.jpg	 r	 3.510	 GoodTrial	 1.8	 bl
50	 6	 0	 x	 LineStimuli//1.8/stimNo133r0c0v1.8.jpg	 r	 3.247	 GoodTrial	 1.8	 bl
1	 7	 0	 x	 LineStimuli//1.5/stimNo142r0c0v1.5.jpg	 r	 4.146	 GoodTrial	 1.5	 bl
2	 7	 0	 x	 LineStimuli//1.5/stimNo150r0c0v1.5.jpg	 r	 4.472	 GoodTrial	 1.5	 bl
3	 7	 1	 right	 LineStimuli//1.5/stimNo81r6c17v1.5.jpg	 l	 4.109	 GoodTrial	 1.5	 bl
4	 7	 0	 x	 LineStimuli//1.5/stimNo139r0c0v1.5.jpg	 r	 4.698	 GoodTrial	 1.5	 bl
5	 7	 0	 x	 LineStimuli//1.5/stimNo148r0c0v1.5.jpg	 r	 6.146	 GoodTrial	 1.5	 bl
6	 7	 1	 left	 LineStimuli//1.5/stimNo117r7c8v1.5.jpg	 r	 3.616	 GoodTrial	 1.5	 bl
7	 7	 1	 left	 LineStimuli//1.5/stimNo106r3c7v1.5.jpg	 l	 2.648	 GoodTrial	 1.5	 bl
8	 7	 0	 x	 LineStimuli//1.5/stimNo159r0c0v1.5.jpg	 r	 4.808	 GoodTrial	 1.5	 bl
9	 7	 0	 x	 LineStimuli//1.5/stimNo147r0c0v1.5.jpg	 r	 4.536	 GoodTrial	 1.5	 bl
10	 7	 0	 x	 LineStimuli//1.5/stimNo133r0c0v1.5.jpg	 r	 3.464	 GoodTrial	 1.5	 bl
11	 7	 1	 left	 LineStimuli//1.5/stimNo91r9c3v1.5.jpg	 l	 1.944	 GoodTrial	 1.5	 bl
12	 7	 0	 x	 LineStimuli//1.5/stimNo126r0c0v1.5.jpg	 r	 4.506	 GoodTrial	 1.5	 bl
13	 7	 0	 x	 LineStimuli//1.5/stimNo128r0c0v1.5.jpg	 r	 3.208	 GoodTrial	 1.5	 bl
14	 7	 1	 right	 LineStimuli//1.5/stimNo105r3c18v1.5.jpg	 l	 2.218	 GoodTrial	 1.5	 bl
15	 7	 0	 x	 LineStimuli//1.5/stimNo124r0c0v1.5.jpg	 r	 2.698	 GoodTrial	 1.5	 bl
16	 7	 0	 x	 LineStimuli//1.5/stimNo155r0c0v1.5.jpg	 r	 2.640	 GoodTrial	 1.5	 bl
17	 7	 0	 x	 LineStimuli//1.5/stimNo127r0c0v1.5.jpg	 r	 1.876	 GoodTrial	 1.5	 bl
18	 7	 0	 x	 LineStimuli//1.5/stimNo140r0c0v1.5.jpg	 r	 2.160	 GoodTrial	 1.5	 bl
19	 7	 1	 left	 LineStimuli//1.5/stimNo112r9c5v1.5.jpg	 r	 1.819	 GoodTrial	 1.5	 bl
20	 7	 1	 left	 LineStimuli//1.5/stimNo120r14c2v1.5.jpg	 l	 2.272	 GoodTrial	 1.5	 bl
21	 7	 1	 right	 LineStimuli//1.5/stimNo92r6c18v1.5.jpg	 r	 4.439	 GoodTrial	 1.5	 bl
22	 7	 1	 right	 LineStimuli//1.5/stimNo100r6c20v1.5.jpg	 r	 5.526	 GoodTrial	 1.5	 bl
23	 7	 1	 left	 LineStimuli//1.5/stimNo99r10c3v1.5.jpg	 l	 2.974	 GoodTrial	 1.5	 bl
24	 7	 1	 right	 LineStimuli//1.5/stimNo101r5c20v1.5.jpg	 r	 5.281	 GoodTrial	 1.5	 bl
25	 7	 0	 x	 LineStimuli//1.5/stimNo145r0c0v1.5.jpg	 r	 7.050	 GoodTrial	 1.5	 bl
26	 7	 0	 x	 LineStimuli//1.5/stimNo129r0c0v1.5.jpg	 r	 7.017	 GoodTrial	 1.5	 bl
27	 7	 1	 right	 LineStimuli//1.5/stimNo103r13c17v1.5.jpg	 r	 3.260	 GoodTrial	 1.5	 bl
28	 7	 1	 right	 LineStimuli//1.5/stimNo90r3c15v1.5.jpg	 r	 7.177	 GoodTrial	 1.5	 bl
29	 7	 0	 x	 LineStimuli//1.5/stimNo143r0c0v1.5.jpg	 r	 8.455	 GoodTrial	 1.5	 bl
30	 7	 0	 x	 LineStimuli//1.5/stimNo121r0c0v1.5.jpg	 r	 8.555	 GoodTrial	 1.5	 bl
31	 7	 0	 x	 LineStimuli//1.5/stimNo136r0c0v1.5.jpg	 r	 6.009	 GoodTrial	 1.5	 bl
32	 7	 0	 x	 LineStimuli//1.5/stimNo135r0c0v1.5.jpg	 r	 3.297	 GoodTrial	 1.5	 bl
33	 7	 1	 right	 LineStimuli//1.5/stimNo108r13c15v1.5.jpg	 r	 5.222	 GoodTrial	 1.5	 bl
34	 7	 1	 right	 LineStimuli//1.5/stimNo119r6c19v1.5.jpg	 r	 8.405	 GoodTrial	 1.5	 bl
35	 7	 1	 right	 LineStimuli//1.5/stimNo93r14c18v1.5.jpg	 r	 7.149	 GoodTrial	 1.5	 bl
36	 7	 0	 x	 LineStimuli//1.5/stimNo144r0c0v1.5.jpg	 r	 8.323	 GoodTrial	 1.5	 bl
37	 7	 0	 x	 LineStimuli//1.5/stimNo146r0c0v1.5.jpg	 r	 9.024	 GoodTrial	 1.5	 bl
38	 7	 0	 x	 LineStimuli//1.5/stimNo131r0c0v1.5.jpg	 r	 7.151	 GoodTrial	 1.5	 bl
39	 7	 0	 x	 LineStimuli//1.5/stimNo137r0c0v1.5.jpg	 r	 5.383	 GoodTrial	 1.5	 bl
40	 7	 0	 x	 LineStimuli//1.5/stimNo141r0c0v1.5.jpg	 r	 4.446	 GoodTrial	 1.5	 bl
41	 7	 0	 x	 LineStimuli//1.5/stimNo151r0c0v1.5.jpg	 r	 4.159	 GoodTrial	 1.5	 bl
42	 7	 1	 left	 LineStimuli//1.5/stimNo114r4c4v1.5.jpg	 l	 3.600	 GoodTrial	 1.5	 bl
43	 7	 1	 right	 LineStimuli//1.5/stimNo115r14c18v1.5.jpg	 l	 2.154	 GoodTrial	 1.5	 bl
44	 7	 0	 x	 LineStimuli//1.5/stimNo160r0c0v1.5.jpg	 r	 4.617	 GoodTrial	 1.5	 bl
45	 7	 0	 x	 LineStimuli//1.5/stimNo130r0c0v1.5.jpg	 r	 4.620	 GoodTrial	 1.5	 bl
46	 7	 1	 right	 LineStimuli//1.5/stimNo86r6c16v1.5.jpg	 r	 4.740	 GoodTrial	 1.5	 bl
47	 7	 1	 left	 LineStimuli//1.5/stimNo89r8c9v1.5.jpg	 l	 7.072	 GoodTrial	 1.5	 bl
48	 7	 1	 left	 LineStimuli//1.5/stimNo110r7c3v1.5.jpg	 r	 5.059	 GoodTrial	 1.5	 bl
49	 7	 1	 left	 LineStimuli//1.5/stimNo102r7c6v1.5.jpg	 r	 8.086	 GoodTrial	 1.5	 bl
50	 7	 1	 right	 LineStimuli//1.5/stimNo84r3c18v1.5.jpg	 l	 5.032	 GoodTrial	 1.5	 bl
