Trial	Block	Target_pr	Target_side	Name	Key	RT	Message	Block_Type	Condition
1	 1	 0	 x	 LineStimuli//2.3/stimNo151r0c0v2.3.jpg	 l	 2.200	 GoodTrial	 2.3	 bl
2	 1	 1	 right	 LineStimuli//2.3/stimNo84r15c14v2.3.jpg	 l	 1.822	 GoodTrial	 2.3	 bl
3	 1	 0	 x	 LineStimuli//2.3/stimNo156r0c0v2.3.jpg	 r	 2.138	 GoodTrial	 2.3	 bl
4	 1	 1	 left	 LineStimuli//2.3/stimNo112r3c2v2.3.jpg	 l	 1.704	 GoodTrial	 2.3	 bl
5	 1	 1	 left	 LineStimuli//2.3/stimNo81r4c3v2.3.jpg	 l	 1.660	 GoodTrial	 2.3	 bl
6	 1	 0	 x	 LineStimuli//2.3/stimNo138r0c0v2.3.jpg	 r	 2.002	 GoodTrial	 2.3	 bl
7	 1	 0	 x	 LineStimuli//2.3/stimNo134r0c0v2.3.jpg	 r	 1.694	 GoodTrial	 2.3	 bl
8	 1	 0	 x	 LineStimuli//2.3/stimNo157r0c0v2.3.jpg	 r	 1.855	 GoodTrial	 2.3	 bl
9	 1	 1	 left	 LineStimuli//2.3/stimNo115r7c3v2.3.jpg	 l	 1.580	 GoodTrial	 2.3	 bl
10	 1	 0	 x	 LineStimuli//2.3/stimNo147r0c0v2.3.jpg	 r	 1.742	 GoodTrial	 2.3	 bl
11	 1	 1	 right	 LineStimuli//2.3/stimNo105r14c14v2.3.jpg	 l	 1.684	 GoodTrial	 2.3	 bl
12	 1	 0	 x	 LineStimuli//2.3/stimNo129r0c0v2.3.jpg	 r	 1.734	 GoodTrial	 2.3	 bl
13	 1	 1	 right	 LineStimuli//2.3/stimNo92r10c17v2.3.jpg	 r	 1.710	 GoodTrial	 2.3	 bl
14	 1	 0	 x	 LineStimuli//2.3/stimNo158r0c0v2.3.jpg	 r	 2.106	 GoodTrial	 2.3	 bl
15	 1	 1	 left	 LineStimuli//2.3/stimNo100r8c6v2.3.jpg	 l	 1.812	 GoodTrial	 2.3	 bl
16	 1	 0	 x	 LineStimuli//2.3/stimNo144r0c0v2.3.jpg	 r	 2.102	 GoodTrial	 2.3	 bl
17	 1	 0	 x	 LineStimuli//2.3/stimNo149r0c0v2.3.jpg	 r	 1.836	 GoodTrial	 2.3	 bl
18	 1	 0	 x	 LineStimuli//2.3/stimNo131r0c0v2.3.jpg	 r	 1.812	 GoodTrial	 2.3	 bl
19	 1	 1	 right	 LineStimuli//2.3/stimNo101r8c14v2.3.jpg	 l	 1.613	 GoodTrial	 2.3	 bl
20	 1	 0	 x	 LineStimuli//2.3/stimNo146r0c0v2.3.jpg	 r	 1.672	 GoodTrial	 2.3	 bl
21	 1	 0	 x	 LineStimuli//2.3/stimNo136r0c0v2.3.jpg	 r	 1.778	 GoodTrial	 2.3	 bl
22	 1	 0	 x	 LineStimuli//2.3/stimNo141r0c0v2.3.jpg	 r	 1.806	 GoodTrial	 2.3	 bl
23	 1	 1	 left	 LineStimuli//2.3/stimNo97r3c3v2.3.jpg	 l	 1.640	 GoodTrial	 2.3	 bl
24	 1	 1	 right	 LineStimuli//2.3/stimNo102r6c18v2.3.jpg	 l	 1.923	 GoodTrial	 2.3	 bl
25	 1	 1	 left	 LineStimuli//2.3/stimNo82r12c4v2.3.jpg	 l	 1.758	 GoodTrial	 2.3	 bl
26	 1	 1	 right	 LineStimuli//2.3/stimNo118r4c17v2.3.jpg	 l	 1.534	 GoodTrial	 2.3	 bl
27	 1	 0	 x	 LineStimuli//2.3/stimNo150r0c0v2.3.jpg	 r	 1.958	 GoodTrial	 2.3	 bl
28	 1	 1	 right	 LineStimuli//2.3/stimNo99r2c13v2.3.jpg	 r	 2.379	 GoodTrial	 2.3	 bl
29	 1	 1	 left	 LineStimuli//2.3/stimNo117r11c8v2.3.jpg	 l	 1.750	 GoodTrial	 2.3	 bl
30	 1	 0	 x	 LineStimuli//2.3/stimNo143r0c0v2.3.jpg	 r	 2.072	 GoodTrial	 2.3	 bl
31	 1	 1	 right	 LineStimuli//2.3/stimNo87r13c19v2.3.jpg	 l	 1.655	 GoodTrial	 2.3	 bl
32	 1	 1	 right	 LineStimuli//2.3/stimNo109r2c17v2.3.jpg	 l	 1.783	 GoodTrial	 2.3	 bl
33	 1	 1	 left	 LineStimuli//2.3/stimNo94r8c9v2.3.jpg	 l	 1.618	 GoodTrial	 2.3	 bl
34	 1	 1	 right	 LineStimuli//2.3/stimNo91r11c20v2.3.jpg	 l	 1.656	 GoodTrial	 2.3	 bl
35	 1	 1	 left	 LineStimuli//2.3/stimNo86r8c9v2.3.jpg	 l	 1.608	 GoodTrial	 2.3	 bl
36	 1	 0	 x	 LineStimuli//2.3/stimNo126r0c0v2.3.jpg	 r	 2.467	 GoodTrial	 2.3	 bl
37	 1	 1	 right	 LineStimuli//2.3/stimNo90r14c21v2.3.jpg	 l	 2.331	 GoodTrial	 2.3	 bl
38	 1	 1	 right	 LineStimuli//2.3/stimNo107r11c15v2.3.jpg	 l	 1.713	 GoodTrial	 2.3	 bl
39	 1	 1	 left	 LineStimuli//2.3/stimNo116r2c2v2.3.jpg	 l	 1.975	 GoodTrial	 2.3	 bl
40	 1	 1	 left	 LineStimuli//2.3/stimNo83r14c4v2.3.jpg	 l	 1.771	 GoodTrial	 2.3	 bl
41	 1	 0	 x	 LineStimuli//2.3/stimNo155r0c0v2.3.jpg	 r	 3.421	 GoodTrial	 2.3	 bl
42	 1	 1	 left	 LineStimuli//2.3/stimNo106r9c9v2.3.jpg	 l	 1.751	 GoodTrial	 2.3	 bl
43	 1	 1	 left	 LineStimuli//2.3/stimNo95r13c9v2.3.jpg	 l	 1.689	 GoodTrial	 2.3	 bl
44	 1	 0	 x	 LineStimuli//2.3/stimNo127r0c0v2.3.jpg	 r	 2.117	 GoodTrial	 2.3	 bl
45	 1	 0	 x	 LineStimuli//2.3/stimNo137r0c0v2.3.jpg	 r	 2.077	 GoodTrial	 2.3	 bl
46	 1	 0	 x	 LineStimuli//2.3/stimNo139r0c0v2.3.jpg	 r	 1.775	 GoodTrial	 2.3	 bl
47	 1	 1	 right	 LineStimuli//2.3/stimNo85r4c15v2.3.jpg	 l	 1.618	 GoodTrial	 2.3	 bl
48	 1	 1	 left	 LineStimuli//2.3/stimNo88r15c2v2.3.jpg	 l	 1.669	 GoodTrial	 2.3	 bl
49	 1	 0	 x	 LineStimuli//2.3/stimNo122r0c0v2.3.jpg	 r	 1.949	 GoodTrial	 2.3	 bl
50	 1	 0	 x	 LineStimuli//2.3/stimNo123r0c0v2.3.jpg	 r	 1.739	 GoodTrial	 2.3	 bl
1	 2	 0	 x	 LineStimuli//1.5/stimNo146r0c0v1.5.jpg	 l	 2.097	 GoodTrial	 1.5	 bl
2	 2	 0	 x	 LineStimuli//1.5/stimNo147r0c0v1.5.jpg	 r	 3.291	 GoodTrial	 1.5	 bl
3	 2	 0	 x	 LineStimuli//1.5/stimNo155r0c0v1.5.jpg	 r	 1.957	 GoodTrial	 1.5	 bl
4	 2	 0	 x	 LineStimuli//1.5/stimNo149r0c0v1.5.jpg	 r	 1.941	 GoodTrial	 1.5	 bl
5	 2	 0	 x	 LineStimuli//1.5/stimNo156r0c0v1.5.jpg	 r	 1.869	 GoodTrial	 1.5	 bl
6	 2	 1	 left	 LineStimuli//1.5/stimNo112r9c5v1.5.jpg	 r	 1.730	 GoodTrial	 1.5	 bl
7	 2	 0	 x	 LineStimuli//1.5/stimNo129r0c0v1.5.jpg	 r	 2.275	 GoodTrial	 1.5	 bl
8	 2	 0	 x	 LineStimuli//1.5/stimNo130r0c0v1.5.jpg	 r	 2.392	 GoodTrial	 1.5	 bl
9	 2	 1	 right	 LineStimuli//1.5/stimNo104r5c18v1.5.jpg	 r	 1.735	 GoodTrial	 1.5	 bl
10	 2	 1	 left	 LineStimuli//1.5/stimNo99r10c3v1.5.jpg	 r	 2.355	 GoodTrial	 1.5	 bl
11	 2	 1	 left	 LineStimuli//1.5/stimNo87r12c5v1.5.jpg	 x	 2.987	 GoodTrial	 1.5	 bl
12	 2	 0	 x	 LineStimuli//1.5/stimNo148r0c0v1.5.jpg	 r	 3.336	 GoodTrial	 1.5	 bl
13	 2	 0	 x	 LineStimuli//1.5/stimNo160r0c0v1.5.jpg	 l	 1.994	 GoodTrial	 1.5	 bl
14	 2	 1	 left	 LineStimuli//1.5/stimNo96r15c4v1.5.jpg	 r	 2.793	 GoodTrial	 1.5	 bl
15	 2	 0	 x	 LineStimuli//1.5/stimNo131r0c0v1.5.jpg	 r	 3.750	 GoodTrial	 1.5	 bl
16	 2	 1	 right	 LineStimuli//1.5/stimNo93r14c18v1.5.jpg	 r	 3.328	 GoodTrial	 1.5	 bl
17	 2	 1	 left	 LineStimuli//1.5/stimNo85r2c5v1.5.jpg	 r	 4.304	 GoodTrial	 1.5	 bl
18	 2	 0	 x	 LineStimuli//1.5/stimNo144r0c0v1.5.jpg	 r	 4.608	 GoodTrial	 1.5	 bl
19	 2	 1	 right	 LineStimuli//1.5/stimNo103r13c17v1.5.jpg	 r	 2.429	 GoodTrial	 1.5	 bl
20	 2	 0	 x	 LineStimuli//1.5/stimNo139r0c0v1.5.jpg	 r	 5.204	 GoodTrial	 1.5	 bl
21	 2	 0	 x	 LineStimuli//1.5/stimNo157r0c0v1.5.jpg	 r	 4.224	 GoodTrial	 1.5	 bl
22	 2	 1	 right	 LineStimuli//1.5/stimNo86r6c16v1.5.jpg	 r	 3.663	 GoodTrial	 1.5	 bl
23	 2	 0	 x	 LineStimuli//1.5/stimNo132r0c0v1.5.jpg	 r	 6.002	 GoodTrial	 1.5	 bl
24	 2	 1	 right	 LineStimuli//1.5/stimNo81r6c17v1.5.jpg	 l	 1.866	 GoodTrial	 1.5	 bl
25	 2	 1	 right	 LineStimuli//1.5/stimNo84r3c18v1.5.jpg	 r	 2.943	 GoodTrial	 1.5	 bl
26	 2	 1	 left	 LineStimuli//1.5/stimNo110r7c3v1.5.jpg	 r	 4.576	 GoodTrial	 1.5	 bl
27	 2	 1	 left	 LineStimuli//1.5/stimNo88r6c7v1.5.jpg	 r	 4.392	 GoodTrial	 1.5	 bl
28	 2	 1	 left	 LineStimuli//1.5/stimNo97r15c6v1.5.jpg	 r	 5.482	 GoodTrial	 1.5	 bl
29	 2	 1	 left	 LineStimuli//1.5/stimNo114r4c4v1.5.jpg	 r	 7.273	 GoodTrial	 1.5	 bl
30	 2	 1	 left	 LineStimuli//1.5/stimNo91r9c3v1.5.jpg	 l	 2.632	 GoodTrial	 1.5	 bl
31	 2	 1	 right	 LineStimuli//1.5/stimNo118r9c20v1.5.jpg	 l	 2.443	 GoodTrial	 1.5	 bl
32	 2	 1	 right	 LineStimuli//1.5/stimNo111r7c17v1.5.jpg	 r	 2.792	 GoodTrial	 1.5	 bl
33	 2	 1	 right	 LineStimuli//1.5/stimNo82r11c15v1.5.jpg	 x	 0.240	 EARLY_RESPONSE	 1.5	 bl
34	 2	 1	 left	 LineStimuli//1.5/stimNo106r3c7v1.5.jpg	 r	 4.657	 GoodTrial	 1.5	 bl
35	 2	 1	 right	 LineStimuli//1.5/stimNo95r6c14v1.5.jpg	 r	 5.558	 GoodTrial	 1.5	 bl
36	 2	 0	 x	 LineStimuli//1.5/stimNo136r0c0v1.5.jpg	 r	 6.079	 GoodTrial	 1.5	 bl
37	 2	 1	 left	 LineStimuli//1.5/stimNo94r10c6v1.5.jpg	 r	 7.368	 GoodTrial	 1.5	 bl
38	 2	 0	 x	 LineStimuli//1.5/stimNo159r0c0v1.5.jpg	 r	 6.213	 GoodTrial	 1.5	 bl
39	 2	 0	 x	 LineStimuli//1.5/stimNo151r0c0v1.5.jpg	 r	 6.600	 GoodTrial	 1.5	 bl
40	 2	 0	 x	 LineStimuli//1.5/stimNo150r0c0v1.5.jpg	 r	 6.357	 GoodTrial	 1.5	 bl
41	 2	 1	 right	 LineStimuli//1.5/stimNo115r14c18v1.5.jpg	 r	 5.869	 GoodTrial	 1.5	 bl
42	 2	 1	 right	 LineStimuli//1.5/stimNo92r6c18v1.5.jpg	 l	 7.329	 GoodTrial	 1.5	 bl
43	 2	 0	 x	 LineStimuli//1.5/stimNo135r0c0v1.5.jpg	 r	 8.389	 GoodTrial	 1.5	 bl
44	 2	 0	 x	 LineStimuli//1.5/stimNo123r0c0v1.5.jpg	 r	 7.761	 GoodTrial	 1.5	 bl
45	 2	 1	 left	 LineStimuli//1.5/stimNo120r14c2v1.5.jpg	 l	 2.825	 GoodTrial	 1.5	 bl
46	 2	 1	 left	 LineStimuli//1.5/stimNo109r8c6v1.5.jpg	 l	 2.029	 GoodTrial	 1.5	 bl
47	 2	 1	 left	 LineStimuli//1.5/stimNo117r7c8v1.5.jpg	 r	 4.231	 GoodTrial	 1.5	 bl
48	 2	 0	 x	 LineStimuli//1.5/stimNo124r0c0v1.5.jpg	 r	 5.161	 GoodTrial	 1.5	 bl
49	 2	 1	 right	 LineStimuli//1.5/stimNo98r8c21v1.5.jpg	 l	 2.410	 GoodTrial	 1.5	 bl
50	 2	 0	 x	 LineStimuli//1.5/stimNo128r0c0v1.5.jpg	 r	 5.290	 GoodTrial	 1.5	 bl
1	 3	 0	 x	 LineStimuli//4.3/stimNo124r0c0v4.3.jpg	 r	 1.839	 GoodTrial	 4.3	 bl
2	 3	 1	 right	 LineStimuli//4.3/stimNo84r15c20v4.3.jpg	 l	 1.719	 GoodTrial	 4.3	 bl
3	 3	 1	 left	 LineStimuli//4.3/stimNo83r4c2v4.3.jpg	 l	 1.738	 GoodTrial	 4.3	 bl
4	 3	 1	 left	 LineStimuli//4.3/stimNo85r3c5v4.3.jpg	 l	 1.481	 GoodTrial	 4.3	 bl
5	 3	 1	 left	 LineStimuli//4.3/stimNo106r8c2v4.3.jpg	 l	 1.999	 GoodTrial	 4.3	 bl
6	 3	 1	 left	 LineStimuli//4.3/stimNo87r3c5v4.3.jpg	 l	 1.486	 GoodTrial	 4.3	 bl
7	 3	 1	 left	 LineStimuli//4.3/stimNo104r15c2v4.3.jpg	 l	 1.521	 GoodTrial	 4.3	 bl
8	 3	 1	 left	 LineStimuli//4.3/stimNo103r10c4v4.3.jpg	 l	 1.473	 GoodTrial	 4.3	 bl
9	 3	 1	 left	 LineStimuli//4.3/stimNo95r11c9v4.3.jpg	 l	 1.563	 GoodTrial	 4.3	 bl
10	 3	 1	 right	 LineStimuli//4.3/stimNo81r10c14v4.3.jpg	 l	 1.672	 GoodTrial	 4.3	 bl
11	 3	 1	 right	 LineStimuli//4.3/stimNo116r5c13v4.3.jpg	 l	 1.488	 GoodTrial	 4.3	 bl
12	 3	 1	 right	 LineStimuli//4.3/stimNo109r15c15v4.3.jpg	 l	 1.503	 GoodTrial	 4.3	 bl
13	 3	 0	 x	 LineStimuli//4.3/stimNo152r0c0v4.3.jpg	 r	 1.663	 GoodTrial	 4.3	 bl
14	 3	 1	 right	 LineStimuli//4.3/stimNo97r6c21v4.3.jpg	 l	 1.495	 GoodTrial	 4.3	 bl
15	 3	 0	 x	 LineStimuli//4.3/stimNo138r0c0v4.3.jpg	 r	 1.560	 GoodTrial	 4.3	 bl
16	 3	 1	 left	 LineStimuli//4.3/stimNo113r11c7v4.3.jpg	 l	 1.511	 GoodTrial	 4.3	 bl
17	 3	 0	 x	 LineStimuli//4.3/stimNo128r0c0v4.3.jpg	 r	 1.663	 GoodTrial	 4.3	 bl
18	 3	 1	 right	 LineStimuli//4.3/stimNo112r10c16v4.3.jpg	 l	 1.403	 GoodTrial	 4.3	 bl
19	 3	 1	 left	 LineStimuli//4.3/stimNo107r2c8v4.3.jpg	 l	 1.440	 GoodTrial	 4.3	 bl
20	 3	 0	 x	 LineStimuli//4.3/stimNo157r0c0v4.3.jpg	 r	 1.608	 GoodTrial	 4.3	 bl
21	 3	 0	 x	 LineStimuli//4.3/stimNo143r0c0v4.3.jpg	 r	 1.637	 GoodTrial	 4.3	 bl
22	 3	 0	 x	 LineStimuli//4.3/stimNo134r0c0v4.3.jpg	 r	 1.568	 GoodTrial	 4.3	 bl
23	 3	 0	 x	 LineStimuli//4.3/stimNo159r0c0v4.3.jpg	 r	 1.734	 GoodTrial	 4.3	 bl
24	 3	 0	 x	 LineStimuli//4.3/stimNo160r0c0v4.3.jpg	 r	 1.610	 GoodTrial	 4.3	 bl
25	 3	 1	 right	 LineStimuli//4.3/stimNo96r4c19v4.3.jpg	 l	 1.520	 GoodTrial	 4.3	 bl
26	 3	 0	 x	 LineStimuli//4.3/stimNo153r0c0v4.3.jpg	 r	 1.741	 GoodTrial	 4.3	 bl
27	 3	 1	 left	 LineStimuli//4.3/stimNo86r7c3v4.3.jpg	 l	 1.522	 GoodTrial	 4.3	 bl
28	 3	 0	 x	 LineStimuli//4.3/stimNo137r0c0v4.3.jpg	 r	 1.586	 GoodTrial	 4.3	 bl
29	 3	 1	 left	 LineStimuli//4.3/stimNo110r6c7v4.3.jpg	 l	 1.416	 GoodTrial	 4.3	 bl
30	 3	 0	 x	 LineStimuli//4.3/stimNo126r0c0v4.3.jpg	 r	 1.530	 GoodTrial	 4.3	 bl
31	 3	 0	 x	 LineStimuli//4.3/stimNo147r0c0v4.3.jpg	 r	 1.586	 GoodTrial	 4.3	 bl
32	 3	 0	 x	 LineStimuli//4.3/stimNo129r0c0v4.3.jpg	 r	 1.500	 GoodTrial	 4.3	 bl
33	 3	 0	 x	 LineStimuli//4.3/stimNo141r0c0v4.3.jpg	 r	 1.554	 GoodTrial	 4.3	 bl
34	 3	 0	 x	 LineStimuli//4.3/stimNo148r0c0v4.3.jpg	 r	 1.463	 GoodTrial	 4.3	 bl
35	 3	 0	 x	 LineStimuli//4.3/stimNo149r0c0v4.3.jpg	 r	 1.496	 GoodTrial	 4.3	 bl
36	 3	 1	 left	 LineStimuli//4.3/stimNo100r8c3v4.3.jpg	 l	 1.584	 GoodTrial	 4.3	 bl
37	 3	 0	 x	 LineStimuli//4.3/stimNo144r0c0v4.3.jpg	 r	 1.529	 GoodTrial	 4.3	 bl
38	 3	 0	 x	 LineStimuli//4.3/stimNo146r0c0v4.3.jpg	 r	 1.468	 GoodTrial	 4.3	 bl
39	 3	 0	 x	 LineStimuli//4.3/stimNo139r0c0v4.3.jpg	 r	 1.668	 GoodTrial	 4.3	 bl
40	 3	 0	 x	 LineStimuli//4.3/stimNo142r0c0v4.3.jpg	 r	 1.436	 GoodTrial	 4.3	 bl
41	 3	 0	 x	 LineStimuli//4.3/stimNo155r0c0v4.3.jpg	 r	 1.476	 GoodTrial	 4.3	 bl
42	 3	 0	 x	 LineStimuli//4.3/stimNo122r0c0v4.3.jpg	 r	 1.432	 GoodTrial	 4.3	 bl
43	 3	 0	 x	 LineStimuli//4.3/stimNo132r0c0v4.3.jpg	 r	 1.451	 GoodTrial	 4.3	 bl
44	 3	 1	 right	 LineStimuli//4.3/stimNo120r8c18v4.3.jpg	 l	 1.417	 GoodTrial	 4.3	 bl
45	 3	 1	 right	 LineStimuli//4.3/stimNo82r7c18v4.3.jpg	 l	 1.441	 GoodTrial	 4.3	 bl
46	 3	 1	 right	 LineStimuli//4.3/stimNo118r11c13v4.3.jpg	 l	 1.484	 GoodTrial	 4.3	 bl
47	 3	 1	 right	 LineStimuli//4.3/stimNo91r9c13v4.3.jpg	 l	 1.396	 GoodTrial	 4.3	 bl
48	 3	 1	 right	 LineStimuli//4.3/stimNo114r10c15v4.3.jpg	 l	 1.490	 GoodTrial	 4.3	 bl
49	 3	 1	 left	 LineStimuli//4.3/stimNo98r3c8v4.3.jpg	 l	 1.501	 GoodTrial	 4.3	 bl
50	 3	 0	 x	 LineStimuli//4.3/stimNo145r0c0v4.3.jpg	 r	 1.633	 GoodTrial	 4.3	 bl
1	 4	 0	 x	 LineStimuli//3.8/stimNo144r0c0v3.8.jpg	 r	 2.064	 GoodTrial	 3.8	 bl
2	 4	 1	 left	 LineStimuli//3.8/stimNo89r10c7v3.8.jpg	 l	 1.496	 GoodTrial	 3.8	 bl
3	 4	 1	 right	 LineStimuli//3.8/stimNo81r3c21v3.8.jpg	 l	 1.548	 GoodTrial	 3.8	 bl
4	 4	 0	 x	 LineStimuli//3.8/stimNo135r0c0v3.8.jpg	 r	 1.809	 GoodTrial	 3.8	 bl
5	 4	 0	 x	 LineStimuli//3.8/stimNo139r0c0v3.8.jpg	 r	 1.691	 GoodTrial	 3.8	 bl
6	 4	 1	 right	 LineStimuli//3.8/stimNo87r6c13v3.8.jpg	 l	 1.464	 GoodTrial	 3.8	 bl
7	 4	 0	 x	 LineStimuli//3.8/stimNo138r0c0v3.8.jpg	 r	 1.647	 GoodTrial	 3.8	 bl
8	 4	 1	 right	 LineStimuli//3.8/stimNo88r10c17v3.8.jpg	 l	 1.679	 GoodTrial	 3.8	 bl
9	 4	 1	 left	 LineStimuli//3.8/stimNo106r9c9v3.8.jpg	 l	 1.560	 GoodTrial	 3.8	 bl
10	 4	 1	 left	 LineStimuli//3.8/stimNo103r11c7v3.8.jpg	 l	 1.529	 GoodTrial	 3.8	 bl
11	 4	 0	 x	 LineStimuli//3.8/stimNo158r0c0v3.8.jpg	 r	 2.132	 GoodTrial	 3.8	 bl
12	 4	 0	 x	 LineStimuli//3.8/stimNo137r0c0v3.8.jpg	 r	 1.545	 GoodTrial	 3.8	 bl
13	 4	 1	 left	 LineStimuli//3.8/stimNo100r13c6v3.8.jpg	 l	 1.575	 GoodTrial	 3.8	 bl
14	 4	 0	 x	 LineStimuli//3.8/stimNo127r0c0v3.8.jpg	 r	 1.617	 GoodTrial	 3.8	 bl
15	 4	 1	 right	 LineStimuli//3.8/stimNo112r12c16v3.8.jpg	 l	 1.649	 GoodTrial	 3.8	 bl
16	 4	 1	 left	 LineStimuli//3.8/stimNo104r12c8v3.8.jpg	 l	 1.485	 GoodTrial	 3.8	 bl
17	 4	 0	 x	 LineStimuli//3.8/stimNo131r0c0v3.8.jpg	 r	 2.001	 GoodTrial	 3.8	 bl
18	 4	 0	 x	 LineStimuli//3.8/stimNo145r0c0v3.8.jpg	 r	 1.665	 GoodTrial	 3.8	 bl
19	 4	 0	 x	 LineStimuli//3.8/stimNo129r0c0v3.8.jpg	 r	 1.699	 GoodTrial	 3.8	 bl
20	 4	 1	 left	 LineStimuli//3.8/stimNo119r9c8v3.8.jpg	 l	 1.457	 GoodTrial	 3.8	 bl
21	 4	 1	 left	 LineStimuli//3.8/stimNo118r4c8v3.8.jpg	 l	 1.633	 GoodTrial	 3.8	 bl
22	 4	 1	 right	 LineStimuli//3.8/stimNo99r2c13v3.8.jpg	 l	 1.513	 GoodTrial	 3.8	 bl
23	 4	 0	 x	 LineStimuli//3.8/stimNo143r0c0v3.8.jpg	 r	 1.628	 GoodTrial	 3.8	 bl
24	 4	 1	 left	 LineStimuli//3.8/stimNo98r2c9v3.8.jpg	 l	 1.566	 GoodTrial	 3.8	 bl
25	 4	 1	 left	 LineStimuli//3.8/stimNo115r14c10v3.8.jpg	 l	 1.767	 GoodTrial	 3.8	 bl
26	 4	 0	 x	 LineStimuli//3.8/stimNo123r0c0v3.8.jpg	 r	 1.625	 GoodTrial	 3.8	 bl
27	 4	 1	 left	 LineStimuli//3.8/stimNo108r3c6v3.8.jpg	 l	 1.431	 GoodTrial	 3.8	 bl
28	 4	 1	 left	 LineStimuli//3.8/stimNo113r14c9v3.8.jpg	 l	 1.561	 GoodTrial	 3.8	 bl
29	 4	 1	 right	 LineStimuli//3.8/stimNo94r6c17v3.8.jpg	 l	 1.505	 GoodTrial	 3.8	 bl
30	 4	 0	 x	 LineStimuli//3.8/stimNo122r0c0v3.8.jpg	 r	 1.545	 GoodTrial	 3.8	 bl
31	 4	 0	 x	 LineStimuli//3.8/stimNo136r0c0v3.8.jpg	 r	 1.677	 GoodTrial	 3.8	 bl
32	 4	 1	 right	 LineStimuli//3.8/stimNo95r5c21v3.8.jpg	 l	 1.545	 GoodTrial	 3.8	 bl
33	 4	 0	 x	 LineStimuli//3.8/stimNo147r0c0v3.8.jpg	 r	 1.575	 GoodTrial	 3.8	 bl
34	 4	 0	 x	 LineStimuli//3.8/stimNo146r0c0v3.8.jpg	 r	 1.462	 GoodTrial	 3.8	 bl
35	 4	 0	 x	 LineStimuli//3.8/stimNo159r0c0v3.8.jpg	 r	 1.571	 GoodTrial	 3.8	 bl
36	 4	 1	 left	 LineStimuli//3.8/stimNo109r11c8v3.8.jpg	 l	 1.335	 GoodTrial	 3.8	 bl
37	 4	 1	 right	 LineStimuli//3.8/stimNo91r10c16v3.8.jpg	 l	 1.538	 GoodTrial	 3.8	 bl
38	 4	 0	 x	 LineStimuli//3.8/stimNo130r0c0v3.8.jpg	 r	 1.495	 GoodTrial	 3.8	 bl
39	 4	 0	 x	 LineStimuli//3.8/stimNo151r0c0v3.8.jpg	 r	 1.476	 GoodTrial	 3.8	 bl
40	 4	 0	 x	 LineStimuli//3.8/stimNo148r0c0v3.8.jpg	 r	 1.479	 GoodTrial	 3.8	 bl
41	 4	 0	 x	 LineStimuli//3.8/stimNo141r0c0v3.8.jpg	 r	 1.458	 GoodTrial	 3.8	 bl
42	 4	 1	 right	 LineStimuli//3.8/stimNo117r6c17v3.8.jpg	 l	 1.445	 GoodTrial	 3.8	 bl
43	 4	 0	 x	 LineStimuli//3.8/stimNo155r0c0v3.8.jpg	 r	 1.581	 GoodTrial	 3.8	 bl
44	 4	 1	 right	 LineStimuli//3.8/stimNo85r3c13v3.8.jpg	 l	 1.462	 GoodTrial	 3.8	 bl
45	 4	 1	 right	 LineStimuli//3.8/stimNo102r10c17v3.8.jpg	 l	 1.440	 GoodTrial	 3.8	 bl
46	 4	 1	 right	 LineStimuli//3.8/stimNo90r8c17v3.8.jpg	 l	 1.456	 GoodTrial	 3.8	 bl
47	 4	 1	 right	 LineStimuli//3.8/stimNo92r6c21v3.8.jpg	 l	 1.522	 GoodTrial	 3.8	 bl
48	 4	 1	 right	 LineStimuli//3.8/stimNo84r9c19v3.8.jpg	 r	 1.424	 GoodTrial	 3.8	 bl
49	 4	 1	 right	 LineStimuli//3.8/stimNo101r12c17v3.8.jpg	 l	 1.519	 GoodTrial	 3.8	 bl
50	 4	 0	 x	 LineStimuli//3.8/stimNo153r0c0v3.8.jpg	 r	 1.579	 GoodTrial	 3.8	 bl
1	 5	 1	 right	 LineStimuli//3.3/stimNo84r6c16v3.3.jpg	 l	 1.600	 GoodTrial	 3.3	 bl
2	 5	 0	 x	 LineStimuli//3.3/stimNo152r0c0v3.3.jpg	 r	 1.520	 GoodTrial	 3.3	 bl
3	 5	 1	 left	 LineStimuli//3.3/stimNo95r15c8v3.3.jpg	 l	 1.717	 GoodTrial	 3.3	 bl
4	 5	 0	 x	 LineStimuli//3.3/stimNo149r0c0v3.3.jpg	 r	 1.719	 GoodTrial	 3.3	 bl
5	 5	 0	 x	 LineStimuli//3.3/stimNo159r0c0v3.3.jpg	 r	 1.464	 GoodTrial	 3.3	 bl
6	 5	 0	 x	 LineStimuli//3.3/stimNo133r0c0v3.3.jpg	 r	 1.470	 GoodTrial	 3.3	 bl
7	 5	 0	 x	 LineStimuli//3.3/stimNo138r0c0v3.3.jpg	 r	 1.447	 GoodTrial	 3.3	 bl
8	 5	 1	 left	 LineStimuli//3.3/stimNo119r15c7v3.3.jpg	 r	 1.442	 GoodTrial	 3.3	 bl
9	 5	 1	 right	 LineStimuli//3.3/stimNo114r11c21v3.3.jpg	 l	 1.497	 GoodTrial	 3.3	 bl
10	 5	 0	 x	 LineStimuli//3.3/stimNo127r0c0v3.3.jpg	 r	 1.496	 GoodTrial	 3.3	 bl
11	 5	 1	 right	 LineStimuli//3.3/stimNo87r15c13v3.3.jpg	 l	 1.620	 GoodTrial	 3.3	 bl
12	 5	 1	 right	 LineStimuli//3.3/stimNo99r6c17v3.3.jpg	 l	 1.508	 GoodTrial	 3.3	 bl
13	 5	 0	 x	 LineStimuli//3.3/stimNo154r0c0v3.3.jpg	 r	 1.752	 GoodTrial	 3.3	 bl
14	 5	 0	 x	 LineStimuli//3.3/stimNo128r0c0v3.3.jpg	 r	 1.572	 GoodTrial	 3.3	 bl
15	 5	 1	 right	 LineStimuli//3.3/stimNo120r8c14v3.3.jpg	 l	 1.720	 GoodTrial	 3.3	 bl
16	 5	 1	 right	 LineStimuli//3.3/stimNo102r13c13v3.3.jpg	 l	 1.512	 GoodTrial	 3.3	 bl
17	 5	 1	 right	 LineStimuli//3.3/stimNo91r12c16v3.3.jpg	 l	 1.462	 GoodTrial	 3.3	 bl
18	 5	 0	 x	 LineStimuli//3.3/stimNo146r0c0v3.3.jpg	 r	 1.558	 GoodTrial	 3.3	 bl
19	 5	 1	 left	 LineStimuli//3.3/stimNo115r3c4v3.3.jpg	 l	 1.426	 GoodTrial	 3.3	 bl
20	 5	 1	 right	 LineStimuli//3.3/stimNo118r3c16v3.3.jpg	 l	 1.444	 GoodTrial	 3.3	 bl
21	 5	 0	 x	 LineStimuli//3.3/stimNo142r0c0v3.3.jpg	 r	 1.719	 GoodTrial	 3.3	 bl
22	 5	 0	 x	 LineStimuli//3.3/stimNo150r0c0v3.3.jpg	 r	 1.496	 GoodTrial	 3.3	 bl
23	 5	 0	 x	 LineStimuli//3.3/stimNo136r0c0v3.3.jpg	 r	 1.386	 GoodTrial	 3.3	 bl
24	 5	 1	 left	 LineStimuli//3.3/stimNo110r4c3v3.3.jpg	 l	 1.428	 GoodTrial	 3.3	 bl
25	 5	 1	 right	 LineStimuli//3.3/stimNo89r5c21v3.3.jpg	 r	 1.436	 GoodTrial	 3.3	 bl
26	 5	 0	 x	 LineStimuli//3.3/stimNo148r0c0v3.3.jpg	 r	 1.634	 GoodTrial	 3.3	 bl
27	 5	 1	 left	 LineStimuli//3.3/stimNo100r3c3v3.3.jpg	 l	 1.416	 GoodTrial	 3.3	 bl
28	 5	 1	 right	 LineStimuli//3.3/stimNo82r11c20v3.3.jpg	 l	 1.560	 GoodTrial	 3.3	 bl
29	 5	 1	 left	 LineStimuli//3.3/stimNo83r8c3v3.3.jpg	 l	 1.910	 GoodTrial	 3.3	 bl
30	 5	 1	 right	 LineStimuli//3.3/stimNo97r6c13v3.3.jpg	 l	 1.536	 GoodTrial	 3.3	 bl
31	 5	 0	 x	 LineStimuli//3.3/stimNo125r0c0v3.3.jpg	 r	 1.920	 GoodTrial	 3.3	 bl
32	 5	 0	 x	 LineStimuli//3.3/stimNo139r0c0v3.3.jpg	 r	 1.800	 GoodTrial	 3.3	 bl
33	 5	 0	 x	 LineStimuli//3.3/stimNo160r0c0v3.3.jpg	 l	 1.942	 GoodTrial	 3.3	 bl
34	 5	 1	 right	 LineStimuli//3.3/stimNo101r7c16v3.3.jpg	 l	 1.826	 GoodTrial	 3.3	 bl
35	 5	 0	 x	 LineStimuli//3.3/stimNo156r0c0v3.3.jpg	 r	 1.586	 GoodTrial	 3.3	 bl
36	 5	 0	 x	 LineStimuli//3.3/stimNo131r0c0v3.3.jpg	 r	 1.573	 GoodTrial	 3.3	 bl
37	 5	 1	 right	 LineStimuli//3.3/stimNo105r7c20v3.3.jpg	 l	 1.600	 GoodTrial	 3.3	 bl
38	 5	 1	 left	 LineStimuli//3.3/stimNo109r15c7v3.3.jpg	 l	 1.741	 GoodTrial	 3.3	 bl
39	 5	 0	 x	 LineStimuli//3.3/stimNo140r0c0v3.3.jpg	 r	 1.584	 GoodTrial	 3.3	 bl
40	 5	 0	 x	 LineStimuli//3.3/stimNo134r0c0v3.3.jpg	 r	 1.568	 GoodTrial	 3.3	 bl
41	 5	 0	 x	 LineStimuli//3.3/stimNo141r0c0v3.3.jpg	 r	 1.593	 GoodTrial	 3.3	 bl
42	 5	 1	 right	 LineStimuli//3.3/stimNo112r5c15v3.3.jpg	 l	 1.424	 GoodTrial	 3.3	 bl
43	 5	 1	 left	 LineStimuli//3.3/stimNo108r13c2v3.3.jpg	 r	 1.537	 GoodTrial	 3.3	 bl
44	 5	 1	 left	 LineStimuli//3.3/stimNo103r6c6v3.3.jpg	 l	 1.720	 GoodTrial	 3.3	 bl
45	 5	 1	 right	 LineStimuli//3.3/stimNo98r4c21v3.3.jpg	 l	 1.501	 GoodTrial	 3.3	 bl
46	 5	 0	 x	 LineStimuli//3.3/stimNo143r0c0v3.3.jpg	 r	 1.613	 GoodTrial	 3.3	 bl
47	 5	 1	 left	 LineStimuli//3.3/stimNo81r15c8v3.3.jpg	 r	 1.633	 GoodTrial	 3.3	 bl
48	 5	 0	 x	 LineStimuli//3.3/stimNo129r0c0v3.3.jpg	 r	 2.248	 GoodTrial	 3.3	 bl
49	 5	 1	 right	 LineStimuli//3.3/stimNo113r13c15v3.3.jpg	 l	 1.583	 GoodTrial	 3.3	 bl
50	 5	 0	 x	 LineStimuli//3.3/stimNo122r0c0v3.3.jpg	 r	 1.734	 GoodTrial	 3.3	 bl
1	 6	 1	 right	 LineStimuli//1.8/stimNo117r10c16v1.8.jpg	 r	 1.603	 GoodTrial	 1.8	 bl
2	 6	 0	 x	 LineStimuli//1.8/stimNo135r0c0v1.8.jpg	 x	 0.703	 EARLY_RESPONSE	 1.8	 bl
3	 6	 1	 left	 LineStimuli//1.8/stimNo89r11c6v1.8.jpg	 l	 2.733	 GoodTrial	 1.8	 bl
4	 6	 0	 x	 LineStimuli//1.8/stimNo133r0c0v1.8.jpg	 r	 3.221	 GoodTrial	 1.8	 bl
5	 6	 0	 x	 LineStimuli//1.8/stimNo139r0c0v1.8.jpg	 r	 4.500	 GoodTrial	 1.8	 bl
6	 6	 0	 x	 LineStimuli//1.8/stimNo155r0c0v1.8.jpg	 r	 4.951	 GoodTrial	 1.8	 bl
7	 6	 1	 right	 LineStimuli//1.8/stimNo108r9c21v1.8.jpg	 l	 3.583	 GoodTrial	 1.8	 bl
8	 6	 1	 right	 LineStimuli//1.8/stimNo102r14c17v1.8.jpg	 l	 3.675	 GoodTrial	 1.8	 bl
9	 6	 1	 right	 LineStimuli//1.8/stimNo101r4c13v1.8.jpg	 l	 1.823	 GoodTrial	 1.8	 bl
10	 6	 1	 right	 LineStimuli//1.8/stimNo111r4c21v1.8.jpg	 l	 1.703	 GoodTrial	 1.8	 bl
11	 6	 1	 left	 LineStimuli//1.8/stimNo87r14c2v1.8.jpg	 l	 2.481	 GoodTrial	 1.8	 bl
12	 6	 0	 x	 LineStimuli//1.8/stimNo153r0c0v1.8.jpg	 r	 4.135	 GoodTrial	 1.8	 bl
13	 6	 1	 right	 LineStimuli//1.8/stimNo100r9c13v1.8.jpg	 l	 1.873	 GoodTrial	 1.8	 bl
14	 6	 0	 x	 LineStimuli//1.8/stimNo123r0c0v1.8.jpg	 r	 4.865	 GoodTrial	 1.8	 bl
15	 6	 1	 right	 LineStimuli//1.8/stimNo118r11c15v1.8.jpg	 l	 2.163	 GoodTrial	 1.8	 bl
16	 6	 0	 x	 LineStimuli//1.8/stimNo136r0c0v1.8.jpg	 r	 4.357	 GoodTrial	 1.8	 bl
17	 6	 0	 x	 LineStimuli//1.8/stimNo157r0c0v1.8.jpg	 r	 4.505	 GoodTrial	 1.8	 bl
18	 6	 0	 x	 LineStimuli//1.8/stimNo125r0c0v1.8.jpg	 r	 5.510	 GoodTrial	 1.8	 bl
19	 6	 0	 x	 LineStimuli//1.8/stimNo150r0c0v1.8.jpg	 r	 4.611	 GoodTrial	 1.8	 bl
20	 6	 1	 left	 LineStimuli//1.8/stimNo113r6c7v1.8.jpg	 l	 2.709	 GoodTrial	 1.8	 bl
21	 6	 1	 right	 LineStimuli//1.8/stimNo84r11c21v1.8.jpg	 r	 3.959	 GoodTrial	 1.8	 bl
22	 6	 0	 x	 LineStimuli//1.8/stimNo142r0c0v1.8.jpg	 r	 4.517	 GoodTrial	 1.8	 bl
23	 6	 0	 x	 LineStimuli//1.8/stimNo152r0c0v1.8.jpg	 r	 3.950	 GoodTrial	 1.8	 bl
24	 6	 0	 x	 LineStimuli//1.8/stimNo128r0c0v1.8.jpg	 r	 3.589	 GoodTrial	 1.8	 bl
25	 6	 1	 right	 LineStimuli//1.8/stimNo90r15c13v1.8.jpg	 r	 3.659	 GoodTrial	 1.8	 bl
26	 6	 1	 left	 LineStimuli//1.8/stimNo95r4c9v1.8.jpg	 l	 2.694	 GoodTrial	 1.8	 bl
27	 6	 1	 right	 LineStimuli//1.8/stimNo82r7c18v1.8.jpg	 l	 2.061	 GoodTrial	 1.8	 bl
28	 6	 0	 x	 LineStimuli//1.8/stimNo143r0c0v1.8.jpg	 r	 4.167	 GoodTrial	 1.8	 bl
29	 6	 1	 left	 LineStimuli//1.8/stimNo106r13c9v1.8.jpg	 l	 1.998	 GoodTrial	 1.8	 bl
30	 6	 0	 x	 LineStimuli//1.8/stimNo130r0c0v1.8.jpg	 r	 3.217	 GoodTrial	 1.8	 bl
31	 6	 0	 x	 LineStimuli//1.8/stimNo124r0c0v1.8.jpg	 r	 2.596	 GoodTrial	 1.8	 bl
32	 6	 0	 x	 LineStimuli//1.8/stimNo149r0c0v1.8.jpg	 r	 2.332	 GoodTrial	 1.8	 bl
33	 6	 0	 x	 LineStimuli//1.8/stimNo121r0c0v1.8.jpg	 r	 2.326	 GoodTrial	 1.8	 bl
34	 6	 0	 x	 LineStimuli//1.8/stimNo122r0c0v1.8.jpg	 r	 3.713	 GoodTrial	 1.8	 bl
35	 6	 1	 right	 LineStimuli//1.8/stimNo97r15c18v1.8.jpg	 l	 2.045	 GoodTrial	 1.8	 bl
36	 6	 1	 right	 LineStimuli//1.8/stimNo83r6c13v1.8.jpg	 l	 2.112	 GoodTrial	 1.8	 bl
37	 6	 0	 x	 LineStimuli//1.8/stimNo147r0c0v1.8.jpg	 r	 3.952	 GoodTrial	 1.8	 bl
38	 6	 1	 right	 LineStimuli//1.8/stimNo109r7c17v1.8.jpg	 l	 3.912	 GoodTrial	 1.8	 bl
39	 6	 1	 left	 LineStimuli//1.8/stimNo86r14c4v1.8.jpg	 l	 1.930	 GoodTrial	 1.8	 bl
40	 6	 0	 x	 LineStimuli//1.8/stimNo145r0c0v1.8.jpg	 r	 6.396	 GoodTrial	 1.8	 bl
41	 6	 1	 left	 LineStimuli//1.8/stimNo110r4c7v1.8.jpg	 l	 2.352	 GoodTrial	 1.8	 bl
42	 6	 1	 left	 LineStimuli//1.8/stimNo107r5c4v1.8.jpg	 l	 1.712	 GoodTrial	 1.8	 bl
43	 6	 1	 right	 LineStimuli//1.8/stimNo114r8c13v1.8.jpg	 l	 1.822	 GoodTrial	 1.8	 bl
44	 6	 0	 x	 LineStimuli//1.8/stimNo129r0c0v1.8.jpg	 r	 3.340	 GoodTrial	 1.8	 bl
45	 6	 1	 left	 LineStimuli//1.8/stimNo88r15c9v1.8.jpg	 l	 1.866	 GoodTrial	 1.8	 bl
46	 6	 1	 left	 LineStimuli//1.8/stimNo91r14c4v1.8.jpg	 l	 1.664	 GoodTrial	 1.8	 bl
47	 6	 0	 x	 LineStimuli//1.8/stimNo151r0c0v1.8.jpg	 r	 4.240	 GoodTrial	 1.8	 bl
48	 6	 0	 x	 LineStimuli//1.8/stimNo144r0c0v1.8.jpg	 r	 4.282	 GoodTrial	 1.8	 bl
49	 6	 0	 x	 LineStimuli//1.8/stimNo146r0c0v1.8.jpg	 r	 3.857	 GoodTrial	 1.8	 bl
50	 6	 1	 left	 LineStimuli//1.8/stimNo85r13c2v1.8.jpg	 l	 2.448	 GoodTrial	 1.8	 bl
1	 7	 0	 x	 LineStimuli//2.8/stimNo131r0c0v2.8.jpg	 r	 1.902	 GoodTrial	 2.8	 bl
2	 7	 1	 right	 LineStimuli//2.8/stimNo103r3c19v2.8.jpg	 l	 1.520	 GoodTrial	 2.8	 bl
3	 7	 1	 right	 LineStimuli//2.8/stimNo115r9c14v2.8.jpg	 l	 1.496	 GoodTrial	 2.8	 bl
4	 7	 0	 x	 LineStimuli//2.8/stimNo135r0c0v2.8.jpg	 r	 1.567	 GoodTrial	 2.8	 bl
5	 7	 1	 left	 LineStimuli//2.8/stimNo87r11c8v2.8.jpg	 r	 1.540	 GoodTrial	 2.8	 bl
6	 7	 0	 x	 LineStimuli//2.8/stimNo133r0c0v2.8.jpg	 r	 1.656	 GoodTrial	 2.8	 bl
7	 7	 1	 right	 LineStimuli//2.8/stimNo93r9c20v2.8.jpg	 l	 1.472	 GoodTrial	 2.8	 bl
8	 7	 1	 right	 LineStimuli//2.8/stimNo109r6c18v2.8.jpg	 l	 1.486	 GoodTrial	 2.8	 bl
9	 7	 1	 right	 LineStimuli//2.8/stimNo112r13c17v2.8.jpg	 l	 1.478	 GoodTrial	 2.8	 bl
10	 7	 0	 x	 LineStimuli//2.8/stimNo128r0c0v2.8.jpg	 r	 1.584	 GoodTrial	 2.8	 bl
11	 7	 0	 x	 LineStimuli//2.8/stimNo158r0c0v2.8.jpg	 r	 1.770	 GoodTrial	 2.8	 bl
12	 7	 0	 x	 LineStimuli//2.8/stimNo146r0c0v2.8.jpg	 r	 1.819	 GoodTrial	 2.8	 bl
13	 7	 0	 x	 LineStimuli//2.8/stimNo139r0c0v2.8.jpg	 r	 1.841	 GoodTrial	 2.8	 bl
14	 7	 0	 x	 LineStimuli//2.8/stimNo127r0c0v2.8.jpg	 r	 1.713	 GoodTrial	 2.8	 bl
15	 7	 1	 right	 LineStimuli//2.8/stimNo114r8c19v2.8.jpg	 l	 1.501	 GoodTrial	 2.8	 bl
16	 7	 0	 x	 LineStimuli//2.8/stimNo142r0c0v2.8.jpg	 r	 1.889	 GoodTrial	 2.8	 bl
17	 7	 1	 left	 LineStimuli//2.8/stimNo91r2c3v2.8.jpg	 r	 1.795	 GoodTrial	 2.8	 bl
18	 7	 1	 left	 LineStimuli//2.8/stimNo94r13c7v2.8.jpg	 l	 1.568	 GoodTrial	 2.8	 bl
19	 7	 0	 x	 LineStimuli//2.8/stimNo122r0c0v2.8.jpg	 r	 1.679	 GoodTrial	 2.8	 bl
20	 7	 0	 x	 LineStimuli//2.8/stimNo137r0c0v2.8.jpg	 r	 1.790	 GoodTrial	 2.8	 bl
21	 7	 1	 right	 LineStimuli//2.8/stimNo106r13c20v2.8.jpg	 l	 1.609	 GoodTrial	 2.8	 bl
22	 7	 0	 x	 LineStimuli//2.8/stimNo121r0c0v2.8.jpg	 r	 2.107	 GoodTrial	 2.8	 bl
23	 7	 0	 x	 LineStimuli//2.8/stimNo140r0c0v2.8.jpg	 r	 1.734	 GoodTrial	 2.8	 bl
24	 7	 0	 x	 LineStimuli//2.8/stimNo147r0c0v2.8.jpg	 r	 1.895	 GoodTrial	 2.8	 bl
25	 7	 0	 x	 LineStimuli//2.8/stimNo144r0c0v2.8.jpg	 r	 1.813	 GoodTrial	 2.8	 bl
26	 7	 1	 right	 LineStimuli//2.8/stimNo99r9c18v2.8.jpg	 l	 1.540	 GoodTrial	 2.8	 bl
27	 7	 1	 left	 LineStimuli//2.8/stimNo89r12c4v2.8.jpg	 l	 1.555	 GoodTrial	 2.8	 bl
28	 7	 0	 x	 LineStimuli//2.8/stimNo153r0c0v2.8.jpg	 r	 1.633	 GoodTrial	 2.8	 bl
29	 7	 1	 right	 LineStimuli//2.8/stimNo117r11c17v2.8.jpg	 l	 1.559	 GoodTrial	 2.8	 bl
30	 7	 1	 left	 LineStimuli//2.8/stimNo98r15c2v2.8.jpg	 l	 1.729	 GoodTrial	 2.8	 bl
31	 7	 1	 right	 LineStimuli//2.8/stimNo101r12c16v2.8.jpg	 l	 1.535	 GoodTrial	 2.8	 bl
32	 7	 1	 left	 LineStimuli//2.8/stimNo108r13c6v2.8.jpg	 l	 1.553	 GoodTrial	 2.8	 bl
33	 7	 1	 left	 LineStimuli//2.8/stimNo116r4c7v2.8.jpg	 l	 1.841	 GoodTrial	 2.8	 bl
34	 7	 1	 right	 LineStimuli//2.8/stimNo81r8c14v2.8.jpg	 l	 1.511	 GoodTrial	 2.8	 bl
35	 7	 0	 x	 LineStimuli//2.8/stimNo151r0c0v2.8.jpg	 r	 1.737	 GoodTrial	 2.8	 bl
36	 7	 0	 x	 LineStimuli//2.8/stimNo160r0c0v2.8.jpg	 r	 1.647	 GoodTrial	 2.8	 bl
37	 7	 1	 left	 LineStimuli//2.8/stimNo102r3c2v2.8.jpg	 l	 1.951	 GoodTrial	 2.8	 bl
38	 7	 0	 x	 LineStimuli//2.8/stimNo157r0c0v2.8.jpg	 r	 1.797	 GoodTrial	 2.8	 bl
39	 7	 1	 right	 LineStimuli//2.8/stimNo85r4c15v2.8.jpg	 l	 1.494	 GoodTrial	 2.8	 bl
40	 7	 1	 left	 LineStimuli//2.8/stimNo84r3c9v2.8.jpg	 l	 1.691	 GoodTrial	 2.8	 bl
41	 7	 0	 x	 LineStimuli//2.8/stimNo123r0c0v2.8.jpg	 r	 1.823	 GoodTrial	 2.8	 bl
42	 7	 1	 right	 LineStimuli//2.8/stimNo118r5c16v2.8.jpg	 l	 1.609	 GoodTrial	 2.8	 bl
43	 7	 1	 left	 LineStimuli//2.8/stimNo96r6c9v2.8.jpg	 l	 1.685	 GoodTrial	 2.8	 bl
44	 7	 0	 x	 LineStimuli//2.8/stimNo155r0c0v2.8.jpg	 r	 1.535	 GoodTrial	 2.8	 bl
45	 7	 0	 x	 LineStimuli//2.8/stimNo130r0c0v2.8.jpg	 r	 1.724	 GoodTrial	 2.8	 bl
46	 7	 0	 x	 LineStimuli//2.8/stimNo126r0c0v2.8.jpg	 r	 1.572	 GoodTrial	 2.8	 bl
47	 7	 0	 x	 LineStimuli//2.8/stimNo148r0c0v2.8.jpg	 r	 1.513	 GoodTrial	 2.8	 bl
48	 7	 1	 right	 LineStimuli//2.8/stimNo111r9c15v2.8.jpg	 l	 1.799	 GoodTrial	 2.8	 bl
49	 7	 1	 right	 LineStimuli//2.8/stimNo90r13c21v2.8.jpg	 l	 1.501	 GoodTrial	 2.8	 bl
50	 7	 1	 left	 LineStimuli//2.8/stimNo82r4c6v2.8.jpg	 l	 1.431	 GoodTrial	 2.8	 bl
