Trial	Block	Target_pr	Target_side	Name	Key	RT	Message	Block_Type	Condition
1	 1	 0	 x	 LineStimuli//2.3/stimNo147r0c0v2.3.jpg	 r	 16.977	 GoodTrial	 2.3	 bl
2	 1	 0	 x	 LineStimuli//2.3/stimNo138r0c0v2.3.jpg	 r	 16.957	 GoodTrial	 2.3	 bl
3	 1	 0	 x	 LineStimuli//2.3/stimNo140r0c0v2.3.jpg	 r	 11.496	 GoodTrial	 2.3	 bl
4	 1	 0	 x	 LineStimuli//2.3/stimNo136r0c0v2.3.jpg	 r	 17.584	 GoodTrial	 2.3	 bl
5	 1	 1	 left	 LineStimuli//2.3/stimNo96r3c3v2.3.jpg	 r	 14.734	 GoodTrial	 2.3	 bl
6	 1	 0	 x	 LineStimuli//2.3/stimNo160r0c0v2.3.jpg	 l	 21.322	 GoodTrial	 2.3	 bl
7	 1	 0	 x	 LineStimuli//2.3/stimNo143r0c0v2.3.jpg	 r	 19.262	 GoodTrial	 2.3	 bl
8	 1	 1	 left	 LineStimuli//2.3/stimNo97r3c3v2.3.jpg	 l	 4.682	 GoodTrial	 2.3	 bl
9	 1	 1	 right	 LineStimuli//2.3/stimNo91r11c20v2.3.jpg	 r	 8.382	 GoodTrial	 2.3	 bl
10	 1	 1	 left	 LineStimuli//2.3/stimNo114r7c8v2.3.jpg	 l	 2.270	 GoodTrial	 2.3	 bl
11	 1	 0	 x	 LineStimuli//2.3/stimNo154r0c0v2.3.jpg	 r	 9.511	 GoodTrial	 2.3	 bl
12	 1	 0	 x	 LineStimuli//2.3/stimNo134r0c0v2.3.jpg	 r	 7.374	 GoodTrial	 2.3	 bl
13	 1	 0	 x	 LineStimuli//2.3/stimNo155r0c0v2.3.jpg	 r	 12.152	 GoodTrial	 2.3	 bl
14	 1	 1	 right	 LineStimuli//2.3/stimNo87r13c19v2.3.jpg	 r	 10.161	 GoodTrial	 2.3	 bl
15	 1	 1	 right	 LineStimuli//2.3/stimNo102r6c18v2.3.jpg	 l	 5.633	 GoodTrial	 2.3	 bl
16	 1	 0	 x	 LineStimuli//2.3/stimNo152r0c0v2.3.jpg	 r	 14.914	 GoodTrial	 2.3	 bl
17	 1	 1	 left	 LineStimuli//2.3/stimNo100r8c6v2.3.jpg	 l	 7.770	 GoodTrial	 2.3	 bl
18	 1	 1	 right	 LineStimuli//2.3/stimNo90r14c21v2.3.jpg	 l	 12.415	 GoodTrial	 2.3	 bl
19	 1	 1	 right	 LineStimuli//2.3/stimNo92r10c17v2.3.jpg	 l	 3.505	 GoodTrial	 2.3	 bl
20	 1	 0	 x	 LineStimuli//2.3/stimNo144r0c0v2.3.jpg	 r	 13.265	 GoodTrial	 2.3	 bl
21	 1	 0	 x	 LineStimuli//2.3/stimNo159r0c0v2.3.jpg	 l	 18.937	 GoodTrial	 2.3	 bl
22	 1	 1	 left	 LineStimuli//2.3/stimNo119r3c2v2.3.jpg	 l	 4.344	 GoodTrial	 2.3	 bl
23	 1	 0	 x	 LineStimuli//2.3/stimNo158r0c0v2.3.jpg	 r	 15.472	 GoodTrial	 2.3	 bl
24	 1	 0	 x	 LineStimuli//2.3/stimNo123r0c0v2.3.jpg	 r	 9.062	 GoodTrial	 2.3	 bl
25	 1	 0	 x	 LineStimuli//2.3/stimNo137r0c0v2.3.jpg	 r	 6.966	 GoodTrial	 2.3	 bl
26	 1	 0	 x	 LineStimuli//2.3/stimNo122r0c0v2.3.jpg	 r	 8.520	 GoodTrial	 2.3	 bl
27	 1	 0	 x	 LineStimuli//2.3/stimNo129r0c0v2.3.jpg	 r	 10.125	 GoodTrial	 2.3	 bl
28	 1	 1	 right	 LineStimuli//2.3/stimNo111r11c21v2.3.jpg	 l	 4.073	 GoodTrial	 2.3	 bl
29	 1	 1	 left	 LineStimuli//2.3/stimNo88r15c2v2.3.jpg	 l	 3.918	 GoodTrial	 2.3	 bl
30	 1	 1	 left	 LineStimuli//2.3/stimNo82r12c4v2.3.jpg	 l	 2.560	 GoodTrial	 2.3	 bl
31	 1	 0	 x	 LineStimuli//2.3/stimNo133r0c0v2.3.jpg	 r	 10.430	 GoodTrial	 2.3	 bl
32	 1	 1	 left	 LineStimuli//2.3/stimNo94r8c9v2.3.jpg	 l	 2.000	 GoodTrial	 2.3	 bl
33	 1	 1	 left	 LineStimuli//2.3/stimNo83r14c4v2.3.jpg	 l	 3.352	 GoodTrial	 2.3	 bl
34	 1	 1	 left	 LineStimuli//2.3/stimNo106r9c9v2.3.jpg	 l	 2.240	 GoodTrial	 2.3	 bl
35	 1	 0	 x	 LineStimuli//2.3/stimNo151r0c0v2.3.jpg	 r	 4.698	 GoodTrial	 2.3	 bl
36	 1	 0	 x	 LineStimuli//2.3/stimNo126r0c0v2.3.jpg	 r	 4.104	 GoodTrial	 2.3	 bl
37	 1	 1	 left	 LineStimuli//2.3/stimNo86r8c9v2.3.jpg	 l	 1.934	 GoodTrial	 2.3	 bl
38	 1	 0	 x	 LineStimuli//2.3/stimNo141r0c0v2.3.jpg	 r	 3.584	 GoodTrial	 2.3	 bl
39	 1	 0	 x	 LineStimuli//2.3/stimNo157r0c0v2.3.jpg	 r	 5.652	 GoodTrial	 2.3	 bl
40	 1	 1	 right	 LineStimuli//2.3/stimNo109r2c17v2.3.jpg	 l	 3.690	 GoodTrial	 2.3	 bl
41	 1	 0	 x	 LineStimuli//2.3/stimNo148r0c0v2.3.jpg	 r	 8.040	 GoodTrial	 2.3	 bl
42	 1	 1	 right	 LineStimuli//2.3/stimNo107r11c15v2.3.jpg	 l	 4.502	 GoodTrial	 2.3	 bl
43	 1	 1	 right	 LineStimuli//2.3/stimNo118r4c17v2.3.jpg	 l	 3.688	 GoodTrial	 2.3	 bl
44	 1	 1	 right	 LineStimuli//2.3/stimNo84r15c14v2.3.jpg	 r	 7.965	 GoodTrial	 2.3	 bl
45	 1	 0	 x	 LineStimuli//2.3/stimNo128r0c0v2.3.jpg	 r	 11.999	 GoodTrial	 2.3	 bl
46	 1	 1	 right	 LineStimuli//2.3/stimNo101r8c14v2.3.jpg	 r	 4.424	 GoodTrial	 2.3	 bl
47	 1	 1	 right	 LineStimuli//2.3/stimNo93r4c16v2.3.jpg	 l	 2.747	 GoodTrial	 2.3	 bl
48	 1	 0	 x	 LineStimuli//2.3/stimNo121r0c0v2.3.jpg	 r	 11.892	 GoodTrial	 2.3	 bl
49	 1	 1	 left	 LineStimuli//2.3/stimNo113r3c8v2.3.jpg	 l	 2.043	 GoodTrial	 2.3	 bl
50	 1	 1	 left	 LineStimuli//2.3/stimNo81r4c3v2.3.jpg	 l	 2.193	 GoodTrial	 2.3	 bl
1	 2	 1	 left	 LineStimuli//3.8/stimNo118r4c8v3.8.jpg	 l	 1.797	 GoodTrial	 3.8	 bl
2	 2	 1	 right	 LineStimuli//3.8/stimNo95r5c21v3.8.jpg	 l	 2.593	 GoodTrial	 3.8	 bl
3	 2	 1	 right	 LineStimuli//3.8/stimNo102r10c17v3.8.jpg	 l	 1.939	 GoodTrial	 3.8	 bl
4	 2	 1	 left	 LineStimuli//3.8/stimNo115r14c10v3.8.jpg	 l	 2.225	 GoodTrial	 3.8	 bl
5	 2	 1	 right	 LineStimuli//3.8/stimNo91r10c16v3.8.jpg	 l	 1.897	 GoodTrial	 3.8	 bl
6	 2	 1	 left	 LineStimuli//3.8/stimNo97r15c9v3.8.jpg	 l	 2.301	 GoodTrial	 3.8	 bl
7	 2	 0	 x	 LineStimuli//3.8/stimNo146r0c0v3.8.jpg	 r	 3.705	 GoodTrial	 3.8	 bl
8	 2	 1	 left	 LineStimuli//3.8/stimNo89r10c7v3.8.jpg	 l	 1.698	 GoodTrial	 3.8	 bl
9	 2	 1	 left	 LineStimuli//3.8/stimNo106r9c9v3.8.jpg	 l	 2.649	 GoodTrial	 3.8	 bl
10	 2	 0	 x	 LineStimuli//3.8/stimNo126r0c0v3.8.jpg	 r	 4.369	 GoodTrial	 3.8	 bl
11	 2	 0	 x	 LineStimuli//3.8/stimNo148r0c0v3.8.jpg	 r	 3.733	 GoodTrial	 3.8	 bl
12	 2	 1	 left	 LineStimuli//3.8/stimNo113r14c9v3.8.jpg	 l	 1.897	 GoodTrial	 3.8	 bl
13	 2	 0	 x	 LineStimuli//3.8/stimNo138r0c0v3.8.jpg	 r	 4.534	 GoodTrial	 3.8	 bl
14	 2	 1	 right	 LineStimuli//3.8/stimNo96r2c13v3.8.jpg	 l	 3.012	 GoodTrial	 3.8	 bl
15	 2	 1	 right	 LineStimuli//3.8/stimNo94r6c17v3.8.jpg	 l	 2.247	 GoodTrial	 3.8	 bl
16	 2	 0	 x	 LineStimuli//3.8/stimNo125r0c0v3.8.jpg	 r	 3.565	 GoodTrial	 3.8	 bl
17	 2	 1	 left	 LineStimuli//3.8/stimNo108r3c6v3.8.jpg	 l	 1.880	 GoodTrial	 3.8	 bl
18	 2	 0	 x	 LineStimuli//3.8/stimNo139r0c0v3.8.jpg	 r	 3.903	 GoodTrial	 3.8	 bl
19	 2	 1	 left	 LineStimuli//3.8/stimNo120r5c3v3.8.jpg	 l	 1.731	 GoodTrial	 3.8	 bl
20	 2	 1	 left	 LineStimuli//3.8/stimNo83r9c9v3.8.jpg	 l	 1.832	 GoodTrial	 3.8	 bl
21	 2	 0	 x	 LineStimuli//3.8/stimNo152r0c0v3.8.jpg	 r	 4.048	 GoodTrial	 3.8	 bl
22	 2	 1	 right	 LineStimuli//3.8/stimNo101r12c17v3.8.jpg	 l	 1.660	 GoodTrial	 3.8	 bl
23	 2	 0	 x	 LineStimuli//3.8/stimNo147r0c0v3.8.jpg	 r	 2.344	 GoodTrial	 3.8	 bl
24	 2	 0	 x	 LineStimuli//3.8/stimNo132r0c0v3.8.jpg	 r	 4.564	 GoodTrial	 3.8	 bl
25	 2	 1	 left	 LineStimuli//3.8/stimNo100r13c6v3.8.jpg	 x	 0.537	 EARLY_RESPONSE	 3.8	 bl
26	 2	 0	 x	 LineStimuli//3.8/stimNo158r0c0v3.8.jpg	 r	 5.298	 GoodTrial	 3.8	 bl
27	 2	 1	 left	 LineStimuli//3.8/stimNo103r11c7v3.8.jpg	 l	 1.640	 GoodTrial	 3.8	 bl
28	 2	 0	 x	 LineStimuli//3.8/stimNo145r0c0v3.8.jpg	 r	 4.586	 GoodTrial	 3.8	 bl
29	 2	 1	 right	 LineStimuli//3.8/stimNo92r6c21v3.8.jpg	 l	 1.784	 GoodTrial	 3.8	 bl
30	 2	 1	 left	 LineStimuli//3.8/stimNo116r7c3v3.8.jpg	 l	 1.724	 GoodTrial	 3.8	 bl
31	 2	 0	 x	 LineStimuli//3.8/stimNo133r0c0v3.8.jpg	 r	 4.444	 GoodTrial	 3.8	 bl
32	 2	 0	 x	 LineStimuli//3.8/stimNo121r0c0v3.8.jpg	 r	 3.536	 GoodTrial	 3.8	 bl
33	 2	 0	 x	 LineStimuli//3.8/stimNo150r0c0v3.8.jpg	 r	 4.670	 GoodTrial	 3.8	 bl
34	 2	 0	 x	 LineStimuli//3.8/stimNo156r0c0v3.8.jpg	 r	 3.359	 GoodTrial	 3.8	 bl
35	 2	 0	 x	 LineStimuli//3.8/stimNo124r0c0v3.8.jpg	 r	 4.098	 GoodTrial	 3.8	 bl
36	 2	 1	 right	 LineStimuli//3.8/stimNo112r12c16v3.8.jpg	 l	 2.330	 GoodTrial	 3.8	 bl
37	 2	 1	 right	 LineStimuli//3.8/stimNo85r3c13v3.8.jpg	 l	 2.430	 GoodTrial	 3.8	 bl
38	 2	 0	 x	 LineStimuli//3.8/stimNo123r0c0v3.8.jpg	 r	 4.648	 GoodTrial	 3.8	 bl
39	 2	 0	 x	 LineStimuli//3.8/stimNo143r0c0v3.8.jpg	 r	 4.552	 GoodTrial	 3.8	 bl
40	 2	 0	 x	 LineStimuli//3.8/stimNo129r0c0v3.8.jpg	 r	 3.777	 GoodTrial	 3.8	 bl
41	 2	 0	 x	 LineStimuli//3.8/stimNo130r0c0v3.8.jpg	 r	 3.967	 GoodTrial	 3.8	 bl
42	 2	 0	 x	 LineStimuli//3.8/stimNo137r0c0v3.8.jpg	 r	 5.305	 GoodTrial	 3.8	 bl
43	 2	 0	 x	 LineStimuli//3.8/stimNo157r0c0v3.8.jpg	 r	 3.923	 GoodTrial	 3.8	 bl
44	 2	 0	 x	 LineStimuli//3.8/stimNo144r0c0v3.8.jpg	 r	 3.804	 GoodTrial	 3.8	 bl
45	 2	 1	 right	 LineStimuli//3.8/stimNo87r6c13v3.8.jpg	 l	 1.805	 GoodTrial	 3.8	 bl
46	 2	 0	 x	 LineStimuli//3.8/stimNo160r0c0v3.8.jpg	 r	 5.102	 GoodTrial	 3.8	 bl
47	 2	 1	 left	 LineStimuli//3.8/stimNo110r7c9v3.8.jpg	 l	 1.775	 GoodTrial	 3.8	 bl
48	 2	 0	 x	 LineStimuli//3.8/stimNo136r0c0v3.8.jpg	 r	 3.263	 GoodTrial	 3.8	 bl
49	 2	 1	 left	 LineStimuli//3.8/stimNo104r12c8v3.8.jpg	 l	 1.992	 GoodTrial	 3.8	 bl
50	 2	 1	 left	 LineStimuli//3.8/stimNo93r8c2v3.8.jpg	 l	 1.921	 GoodTrial	 3.8	 bl
1	 3	 0	 x	 LineStimuli//3.3/stimNo133r0c0v3.3.jpg	 r	 3.619	 GoodTrial	 3.3	 bl
2	 3	 1	 left	 LineStimuli//3.3/stimNo85r6c4v3.3.jpg	 l	 1.652	 GoodTrial	 3.3	 bl
3	 3	 1	 left	 LineStimuli//3.3/stimNo83r8c3v3.3.jpg	 l	 1.674	 GoodTrial	 3.3	 bl
4	 3	 1	 right	 LineStimuli//3.3/stimNo96r8c18v3.3.jpg	 l	 1.739	 GoodTrial	 3.3	 bl
5	 3	 1	 left	 LineStimuli//3.3/stimNo90r2c9v3.3.jpg	 l	 1.681	 GoodTrial	 3.3	 bl
6	 3	 0	 x	 LineStimuli//3.3/stimNo138r0c0v3.3.jpg	 r	 4.977	 GoodTrial	 3.3	 bl
7	 3	 0	 x	 LineStimuli//3.3/stimNo136r0c0v3.3.jpg	 r	 4.967	 GoodTrial	 3.3	 bl
8	 3	 0	 x	 LineStimuli//3.3/stimNo142r0c0v3.3.jpg	 r	 4.075	 GoodTrial	 3.3	 bl
9	 3	 0	 x	 LineStimuli//3.3/stimNo153r0c0v3.3.jpg	 r	 3.621	 GoodTrial	 3.3	 bl
10	 3	 1	 left	 LineStimuli//3.3/stimNo100r3c3v3.3.jpg	 l	 1.691	 GoodTrial	 3.3	 bl
11	 3	 1	 right	 LineStimuli//3.3/stimNo102r13c13v3.3.jpg	 l	 2.081	 GoodTrial	 3.3	 bl
12	 3	 0	 x	 LineStimuli//3.3/stimNo135r0c0v3.3.jpg	 r	 2.363	 GoodTrial	 3.3	 bl
13	 3	 0	 x	 LineStimuli//3.3/stimNo151r0c0v3.3.jpg	 r	 5.093	 GoodTrial	 3.3	 bl
14	 3	 1	 right	 LineStimuli//3.3/stimNo114r11c21v3.3.jpg	 l	 1.945	 GoodTrial	 3.3	 bl
15	 3	 0	 x	 LineStimuli//3.3/stimNo131r0c0v3.3.jpg	 r	 3.627	 GoodTrial	 3.3	 bl
16	 3	 0	 x	 LineStimuli//3.3/stimNo155r0c0v3.3.jpg	 r	 4.369	 GoodTrial	 3.3	 bl
17	 3	 0	 x	 LineStimuli//3.3/stimNo144r0c0v3.3.jpg	 r	 4.601	 GoodTrial	 3.3	 bl
18	 3	 1	 right	 LineStimuli//3.3/stimNo87r15c13v3.3.jpg	 l	 2.736	 GoodTrial	 3.3	 bl
19	 3	 1	 right	 LineStimuli//3.3/stimNo98r4c21v3.3.jpg	 l	 2.859	 GoodTrial	 3.3	 bl
20	 3	 1	 right	 LineStimuli//3.3/stimNo101r7c16v3.3.jpg	 l	 1.927	 GoodTrial	 3.3	 bl
21	 3	 1	 left	 LineStimuli//3.3/stimNo95r15c8v3.3.jpg	 l	 2.177	 GoodTrial	 3.3	 bl
22	 3	 1	 left	 LineStimuli//3.3/stimNo106r9c9v3.3.jpg	 l	 1.836	 GoodTrial	 3.3	 bl
23	 3	 1	 left	 LineStimuli//3.3/stimNo115r3c4v3.3.jpg	 l	 1.695	 GoodTrial	 3.3	 bl
24	 3	 1	 right	 LineStimuli//3.3/stimNo118r3c16v3.3.jpg	 l	 2.255	 GoodTrial	 3.3	 bl
25	 3	 0	 x	 LineStimuli//3.3/stimNo127r0c0v3.3.jpg	 r	 4.015	 GoodTrial	 3.3	 bl
26	 3	 1	 right	 LineStimuli//3.3/stimNo107r2c17v3.3.jpg	 l	 4.192	 GoodTrial	 3.3	 bl
27	 3	 0	 x	 LineStimuli//3.3/stimNo130r0c0v3.3.jpg	 r	 4.113	 GoodTrial	 3.3	 bl
28	 3	 0	 x	 LineStimuli//3.3/stimNo123r0c0v3.3.jpg	 r	 3.332	 GoodTrial	 3.3	 bl
29	 3	 0	 x	 LineStimuli//3.3/stimNo121r0c0v3.3.jpg	 r	 3.883	 GoodTrial	 3.3	 bl
30	 3	 1	 left	 LineStimuli//3.3/stimNo93r3c5v3.3.jpg	 l	 1.721	 GoodTrial	 3.3	 bl
31	 3	 1	 right	 LineStimuli//3.3/stimNo113r13c15v3.3.jpg	 l	 1.992	 GoodTrial	 3.3	 bl
32	 3	 1	 right	 LineStimuli//3.3/stimNo120r8c14v3.3.jpg	 l	 2.468	 GoodTrial	 3.3	 bl
33	 3	 0	 x	 LineStimuli//3.3/stimNo149r0c0v3.3.jpg	 r	 4.920	 GoodTrial	 3.3	 bl
34	 3	 1	 left	 LineStimuli//3.3/stimNo109r15c7v3.3.jpg	 l	 2.088	 GoodTrial	 3.3	 bl
35	 3	 1	 left	 LineStimuli//3.3/stimNo108r13c2v3.3.jpg	 l	 1.926	 GoodTrial	 3.3	 bl
36	 3	 0	 x	 LineStimuli//3.3/stimNo152r0c0v3.3.jpg	 r	 4.242	 GoodTrial	 3.3	 bl
37	 3	 1	 right	 LineStimuli//3.3/stimNo97r6c13v3.3.jpg	 l	 1.848	 GoodTrial	 3.3	 bl
38	 3	 0	 x	 LineStimuli//3.3/stimNo156r0c0v3.3.jpg	 r	 3.762	 GoodTrial	 3.3	 bl
39	 3	 1	 left	 LineStimuli//3.3/stimNo86r5c7v3.3.jpg	 l	 1.594	 GoodTrial	 3.3	 bl
40	 3	 0	 x	 LineStimuli//3.3/stimNo128r0c0v3.3.jpg	 r	 3.284	 GoodTrial	 3.3	 bl
41	 3	 1	 right	 LineStimuli//3.3/stimNo84r6c16v3.3.jpg	 l	 1.919	 GoodTrial	 3.3	 bl
42	 3	 0	 x	 LineStimuli//3.3/stimNo134r0c0v3.3.jpg	 r	 4.376	 GoodTrial	 3.3	 bl
43	 3	 1	 right	 LineStimuli//3.3/stimNo91r12c16v3.3.jpg	 l	 1.904	 GoodTrial	 3.3	 bl
44	 3	 0	 x	 LineStimuli//3.3/stimNo146r0c0v3.3.jpg	 r	 3.518	 GoodTrial	 3.3	 bl
45	 3	 0	 x	 LineStimuli//3.3/stimNo129r0c0v3.3.jpg	 r	 4.057	 GoodTrial	 3.3	 bl
46	 3	 1	 right	 LineStimuli//3.3/stimNo112r5c15v3.3.jpg	 l	 1.943	 GoodTrial	 3.3	 bl
47	 3	 1	 right	 LineStimuli//3.3/stimNo88r9c14v3.3.jpg	 l	 1.914	 GoodTrial	 3.3	 bl
48	 3	 0	 x	 LineStimuli//3.3/stimNo143r0c0v3.3.jpg	 r	 4.414	 GoodTrial	 3.3	 bl
49	 3	 0	 x	 LineStimuli//3.3/stimNo148r0c0v3.3.jpg	 r	 3.660	 GoodTrial	 3.3	 bl
50	 3	 0	 x	 LineStimuli//3.3/stimNo132r0c0v3.3.jpg	 r	 3.580	 GoodTrial	 3.3	 bl
1	 4	 0	 x	 LineStimuli//2.8/stimNo158r0c0v2.8.jpg	 r	 4.728	 GoodTrial	 2.8	 bl
2	 4	 1	 left	 LineStimuli//2.8/stimNo91r2c3v2.8.jpg	 l	 2.721	 GoodTrial	 2.8	 bl
3	 4	 0	 x	 LineStimuli//2.8/stimNo148r0c0v2.8.jpg	 r	 6.105	 GoodTrial	 2.8	 bl
4	 4	 0	 x	 LineStimuli//2.8/stimNo139r0c0v2.8.jpg	 r	 3.391	 GoodTrial	 2.8	 bl
5	 4	 0	 x	 LineStimuli//2.8/stimNo137r0c0v2.8.jpg	 r	 3.416	 GoodTrial	 2.8	 bl
6	 4	 0	 x	 LineStimuli//2.8/stimNo128r0c0v2.8.jpg	 r	 4.161	 GoodTrial	 2.8	 bl
7	 4	 0	 x	 LineStimuli//2.8/stimNo154r0c0v2.8.jpg	 r	 4.201	 GoodTrial	 2.8	 bl
8	 4	 1	 left	 LineStimuli//2.8/stimNo108r13c6v2.8.jpg	 l	 2.435	 GoodTrial	 2.8	 bl
9	 4	 0	 x	 LineStimuli//2.8/stimNo131r0c0v2.8.jpg	 r	 4.264	 GoodTrial	 2.8	 bl
10	 4	 1	 left	 LineStimuli//2.8/stimNo86r15c6v2.8.jpg	 l	 2.198	 GoodTrial	 2.8	 bl
11	 4	 0	 x	 LineStimuli//2.8/stimNo141r0c0v2.8.jpg	 r	 3.200	 GoodTrial	 2.8	 bl
12	 4	 0	 x	 LineStimuli//2.8/stimNo149r0c0v2.8.jpg	 r	 3.170	 GoodTrial	 2.8	 bl
13	 4	 1	 right	 LineStimuli//2.8/stimNo99r9c18v2.8.jpg	 l	 1.656	 GoodTrial	 2.8	 bl
14	 4	 0	 x	 LineStimuli//2.8/stimNo155r0c0v2.8.jpg	 r	 3.360	 GoodTrial	 2.8	 bl
15	 4	 0	 x	 LineStimuli//2.8/stimNo153r0c0v2.8.jpg	 r	 2.885	 GoodTrial	 2.8	 bl
16	 4	 0	 x	 LineStimuli//2.8/stimNo146r0c0v2.8.jpg	 r	 3.313	 GoodTrial	 2.8	 bl
17	 4	 1	 left	 LineStimuli//2.8/stimNo97r11c4v2.8.jpg	 l	 2.171	 GoodTrial	 2.8	 bl
18	 4	 1	 right	 LineStimuli//2.8/stimNo110r7c14v2.8.jpg	 l	 2.059	 GoodTrial	 2.8	 bl
19	 4	 0	 x	 LineStimuli//2.8/stimNo132r0c0v2.8.jpg	 r	 4.551	 GoodTrial	 2.8	 bl
20	 4	 1	 right	 LineStimuli//2.8/stimNo106r13c20v2.8.jpg	 l	 2.045	 GoodTrial	 2.8	 bl
21	 4	 1	 left	 LineStimuli//2.8/stimNo119r8c5v2.8.jpg	 l	 1.713	 GoodTrial	 2.8	 bl
22	 4	 1	 left	 LineStimuli//2.8/stimNo84r3c9v2.8.jpg	 l	 2.801	 GoodTrial	 2.8	 bl
23	 4	 1	 left	 LineStimuli//2.8/stimNo96r6c9v2.8.jpg	 l	 1.613	 GoodTrial	 2.8	 bl
24	 4	 1	 left	 LineStimuli//2.8/stimNo82r4c6v2.8.jpg	 l	 1.683	 GoodTrial	 2.8	 bl
25	 4	 0	 x	 LineStimuli//2.8/stimNo133r0c0v2.8.jpg	 r	 5.466	 GoodTrial	 2.8	 bl
26	 4	 0	 x	 LineStimuli//2.8/stimNo152r0c0v2.8.jpg	 r	 3.358	 GoodTrial	 2.8	 bl
27	 4	 1	 right	 LineStimuli//2.8/stimNo93r9c20v2.8.jpg	 l	 1.901	 GoodTrial	 2.8	 bl
28	 4	 1	 left	 LineStimuli//2.8/stimNo107r5c6v2.8.jpg	 l	 1.727	 GoodTrial	 2.8	 bl
29	 4	 0	 x	 LineStimuli//2.8/stimNo130r0c0v2.8.jpg	 r	 2.999	 GoodTrial	 2.8	 bl
30	 4	 0	 x	 LineStimuli//2.8/stimNo157r0c0v2.8.jpg	 r	 2.689	 GoodTrial	 2.8	 bl
31	 4	 0	 x	 LineStimuli//2.8/stimNo124r0c0v2.8.jpg	 r	 3.571	 GoodTrial	 2.8	 bl
32	 4	 0	 x	 LineStimuli//2.8/stimNo144r0c0v2.8.jpg	 r	 3.039	 GoodTrial	 2.8	 bl
33	 4	 1	 right	 LineStimuli//2.8/stimNo103r3c19v2.8.jpg	 l	 1.773	 GoodTrial	 2.8	 bl
34	 4	 1	 left	 LineStimuli//2.8/stimNo98r15c2v2.8.jpg	 l	 1.912	 GoodTrial	 2.8	 bl
35	 4	 0	 x	 LineStimuli//2.8/stimNo138r0c0v2.8.jpg	 r	 3.760	 GoodTrial	 2.8	 bl
36	 4	 1	 left	 LineStimuli//2.8/stimNo104r8c6v2.8.jpg	 l	 1.767	 GoodTrial	 2.8	 bl
37	 4	 0	 x	 LineStimuli//2.8/stimNo143r0c0v2.8.jpg	 r	 3.986	 GoodTrial	 2.8	 bl
38	 4	 1	 left	 LineStimuli//2.8/stimNo113r9c5v2.8.jpg	 l	 1.783	 GoodTrial	 2.8	 bl
39	 4	 0	 x	 LineStimuli//2.8/stimNo135r0c0v2.8.jpg	 r	 2.322	 GoodTrial	 2.8	 bl
40	 4	 1	 right	 LineStimuli//2.8/stimNo115r9c14v2.8.jpg	 l	 1.576	 GoodTrial	 2.8	 bl
41	 4	 0	 x	 LineStimuli//2.8/stimNo125r0c0v2.8.jpg	 r	 3.293	 GoodTrial	 2.8	 bl
42	 4	 0	 x	 LineStimuli//2.8/stimNo159r0c0v2.8.jpg	 r	 3.631	 GoodTrial	 2.8	 bl
43	 4	 1	 right	 LineStimuli//2.8/stimNo81r8c14v2.8.jpg	 l	 1.888	 GoodTrial	 2.8	 bl
44	 4	 1	 right	 LineStimuli//2.8/stimNo109r6c18v2.8.jpg	 l	 2.247	 GoodTrial	 2.8	 bl
45	 4	 0	 x	 LineStimuli//2.8/stimNo160r0c0v2.8.jpg	 r	 3.394	 GoodTrial	 2.8	 bl
46	 4	 0	 x	 LineStimuli//2.8/stimNo151r0c0v2.8.jpg	 r	 3.750	 GoodTrial	 2.8	 bl
47	 4	 1	 right	 LineStimuli//2.8/stimNo90r13c21v2.8.jpg	 l	 2.316	 GoodTrial	 2.8	 bl
48	 4	 0	 x	 LineStimuli//2.8/stimNo142r0c0v2.8.jpg	 r	 4.684	 GoodTrial	 2.8	 bl
49	 4	 0	 x	 LineStimuli//2.8/stimNo147r0c0v2.8.jpg	 r	 4.060	 GoodTrial	 2.8	 bl
50	 4	 0	 x	 LineStimuli//2.8/stimNo121r0c0v2.8.jpg	 r	 3.452	 GoodTrial	 2.8	 bl
1	 5	 0	 x	 LineStimuli//1.5/stimNo138r0c0v1.5.jpg	 r	 7.719	 GoodTrial	 1.5	 bl
2	 5	 0	 x	 LineStimuli//1.5/stimNo132r0c0v1.5.jpg	 r	 7.755	 GoodTrial	 1.5	 bl
3	 5	 1	 left	 LineStimuli//1.5/stimNo99r10c3v1.5.jpg	 l	 3.617	 GoodTrial	 1.5	 bl
4	 5	 1	 right	 LineStimuli//1.5/stimNo95r6c14v1.5.jpg	 r	 5.338	 GoodTrial	 1.5	 bl
5	 5	 0	 x	 LineStimuli//1.5/stimNo142r0c0v1.5.jpg	 r	 7.857	 GoodTrial	 1.5	 bl
6	 5	 0	 x	 LineStimuli//1.5/stimNo128r0c0v1.5.jpg	 r	 9.961	 GoodTrial	 1.5	 bl
7	 5	 1	 right	 LineStimuli//1.5/stimNo93r14c18v1.5.jpg	 r	 7.825	 GoodTrial	 1.5	 bl
8	 5	 1	 left	 LineStimuli//1.5/stimNo88r6c7v1.5.jpg	 r	 12.528	 GoodTrial	 1.5	 bl
9	 5	 0	 x	 LineStimuli//1.5/stimNo146r0c0v1.5.jpg	 r	 13.712	 GoodTrial	 1.5	 bl
10	 5	 0	 x	 LineStimuli//1.5/stimNo145r0c0v1.5.jpg	 r	 13.255	 GoodTrial	 1.5	 bl
11	 5	 0	 x	 LineStimuli//1.5/stimNo124r0c0v1.5.jpg	 r	 7.047	 GoodTrial	 1.5	 bl
12	 5	 0	 x	 LineStimuli//1.5/stimNo141r0c0v1.5.jpg	 r	 10.191	 GoodTrial	 1.5	 bl
13	 5	 1	 right	 LineStimuli//1.5/stimNo107r2c19v1.5.jpg	 r	 8.197	 GoodTrial	 1.5	 bl
14	 5	 0	 x	 LineStimuli//1.5/stimNo139r0c0v1.5.jpg	 r	 11.741	 GoodTrial	 1.5	 bl
15	 5	 1	 left	 LineStimuli//1.5/stimNo89r8c9v1.5.jpg	 r	 9.208	 GoodTrial	 1.5	 bl
16	 5	 0	 x	 LineStimuli//1.5/stimNo129r0c0v1.5.jpg	 r	 10.182	 GoodTrial	 1.5	 bl
17	 5	 0	 x	 LineStimuli//1.5/stimNo131r0c0v1.5.jpg	 r	 14.519	 GoodTrial	 1.5	 bl
18	 5	 1	 right	 LineStimuli//1.5/stimNo81r6c17v1.5.jpg	 r	 16.903	 GoodTrial	 1.5	 bl
19	 5	 0	 x	 LineStimuli//1.5/stimNo155r0c0v1.5.jpg	 l	 3.238	 GoodTrial	 1.5	 bl
20	 5	 0	 x	 LineStimuli//1.5/stimNo137r0c0v1.5.jpg	 r	 18.448	 GoodTrial	 1.5	 bl
21	 5	 1	 right	 LineStimuli//1.5/stimNo104r5c18v1.5.jpg	 r	 10.546	 GoodTrial	 1.5	 bl
22	 5	 0	 x	 LineStimuli//1.5/stimNo147r0c0v1.5.jpg	 l	 15.256	 GoodTrial	 1.5	 bl
23	 5	 0	 x	 LineStimuli//1.5/stimNo150r0c0v1.5.jpg	 r	 11.692	 GoodTrial	 1.5	 bl
24	 5	 1	 left	 LineStimuli//1.5/stimNo112r9c5v1.5.jpg	 r	 13.780	 GoodTrial	 1.5	 bl
25	 5	 1	 right	 LineStimuli//1.5/stimNo86r6c16v1.5.jpg	 l	 3.587	 GoodTrial	 1.5	 bl
26	 5	 1	 left	 LineStimuli//1.5/stimNo113r4c4v1.5.jpg	 r	 7.633	 GoodTrial	 1.5	 bl
27	 5	 0	 x	 LineStimuli//1.5/stimNo153r0c0v1.5.jpg	 r	 7.420	 GoodTrial	 1.5	 bl
28	 5	 0	 x	 LineStimuli//1.5/stimNo156r0c0v1.5.jpg	 r	 15.467	 GoodTrial	 1.5	 bl
29	 5	 1	 left	 LineStimuli//1.5/stimNo120r14c2v1.5.jpg	 r	 13.349	 GoodTrial	 1.5	 bl
30	 5	 0	 x	 LineStimuli//1.5/stimNo159r0c0v1.5.jpg	 r	 16.297	 GoodTrial	 1.5	 bl
31	 5	 1	 right	 LineStimuli//1.5/stimNo118r9c20v1.5.jpg	 l	 2.349	 GoodTrial	 1.5	 bl
32	 5	 0	 x	 LineStimuli//1.5/stimNo136r0c0v1.5.jpg	 r	 4.496	 GoodTrial	 1.5	 bl
33	 5	 1	 right	 LineStimuli//1.5/stimNo103r13c17v1.5.jpg	 r	 7.290	 GoodTrial	 1.5	 bl
34	 5	 1	 right	 LineStimuli//1.5/stimNo100r6c20v1.5.jpg	 l	 4.965	 GoodTrial	 1.5	 bl
35	 5	 1	 left	 LineStimuli//1.5/stimNo94r10c6v1.5.jpg	 r	 8.880	 GoodTrial	 1.5	 bl
36	 5	 1	 right	 LineStimuli//1.5/stimNo119r6c19v1.5.jpg	 r	 8.549	 GoodTrial	 1.5	 bl
37	 5	 0	 x	 LineStimuli//1.5/stimNo144r0c0v1.5.jpg	 r	 13.210	 GoodTrial	 1.5	 bl
38	 5	 1	 right	 LineStimuli//1.5/stimNo98r8c21v1.5.jpg	 r	 11.384	 GoodTrial	 1.5	 bl
39	 5	 0	 x	 LineStimuli//1.5/stimNo148r0c0v1.5.jpg	 r	 14.082	 GoodTrial	 1.5	 bl
40	 5	 0	 x	 LineStimuli//1.5/stimNo157r0c0v1.5.jpg	 r	 14.338	 GoodTrial	 1.5	 bl
41	 5	 1	 left	 LineStimuli//1.5/stimNo85r2c5v1.5.jpg	 r	 7.302	 GoodTrial	 1.5	 bl
42	 5	 1	 right	 LineStimuli//1.5/stimNo84r3c18v1.5.jpg	 r	 14.514	 GoodTrial	 1.5	 bl
43	 5	 1	 right	 LineStimuli//1.5/stimNo105r3c18v1.5.jpg	 r	 13.577	 GoodTrial	 1.5	 bl
44	 5	 1	 right	 LineStimuli//1.5/stimNo90r3c15v1.5.jpg	 r	 13.299	 GoodTrial	 1.5	 bl
45	 5	 1	 left	 LineStimuli//1.5/stimNo106r3c7v1.5.jpg	 r	 9.799	 GoodTrial	 1.5	 bl
46	 5	 0	 x	 LineStimuli//1.5/stimNo143r0c0v1.5.jpg	 r	 13.766	 GoodTrial	 1.5	 bl
47	 5	 1	 left	 LineStimuli//1.5/stimNo109r8c6v1.5.jpg	 r	 12.104	 GoodTrial	 1.5	 bl
48	 5	 0	 x	 LineStimuli//1.5/stimNo140r0c0v1.5.jpg	 x	 1.800	 GoodTrial	 1.5	 bl
49	 5	 0	 x	 LineStimuli//1.5/stimNo125r0c0v1.5.jpg	 l	 16.307	 GoodTrial	 1.5	 bl
50	 5	 1	 left	 LineStimuli//1.5/stimNo87r12c5v1.5.jpg	 l	 4.441	 GoodTrial	 1.5	 bl
1	 6	 0	 x	 LineStimuli//4.3/stimNo152r0c0v4.3.jpg	 r	 6.185	 GoodTrial	 4.3	 bl
2	 6	 1	 right	 LineStimuli//4.3/stimNo91r9c13v4.3.jpg	 l	 1.856	 GoodTrial	 4.3	 bl
3	 6	 0	 x	 LineStimuli//4.3/stimNo140r0c0v4.3.jpg	 r	 3.603	 GoodTrial	 4.3	 bl
4	 6	 1	 left	 LineStimuli//4.3/stimNo106r8c2v4.3.jpg	 l	 1.601	 GoodTrial	 4.3	 bl
5	 6	 0	 x	 LineStimuli//4.3/stimNo125r0c0v4.3.jpg	 r	 2.669	 GoodTrial	 4.3	 bl
6	 6	 0	 x	 LineStimuli//4.3/stimNo142r0c0v4.3.jpg	 r	 2.313	 GoodTrial	 4.3	 bl
7	 6	 0	 x	 LineStimuli//4.3/stimNo150r0c0v4.3.jpg	 r	 3.384	 GoodTrial	 4.3	 bl
8	 6	 1	 right	 LineStimuli//4.3/stimNo116r5c13v4.3.jpg	 l	 1.903	 GoodTrial	 4.3	 bl
9	 6	 1	 right	 LineStimuli//4.3/stimNo96r4c19v4.3.jpg	 l	 1.799	 GoodTrial	 4.3	 bl
10	 6	 0	 x	 LineStimuli//4.3/stimNo126r0c0v4.3.jpg	 r	 3.160	 GoodTrial	 4.3	 bl
11	 6	 1	 left	 LineStimuli//4.3/stimNo95r11c9v4.3.jpg	 l	 1.672	 GoodTrial	 4.3	 bl
12	 6	 1	 left	 LineStimuli//4.3/stimNo105r14c6v4.3.jpg	 l	 1.643	 GoodTrial	 4.3	 bl
13	 6	 0	 x	 LineStimuli//4.3/stimNo143r0c0v4.3.jpg	 r	 3.396	 GoodTrial	 4.3	 bl
14	 6	 1	 right	 LineStimuli//4.3/stimNo82r7c18v4.3.jpg	 l	 1.688	 GoodTrial	 4.3	 bl
15	 6	 1	 right	 LineStimuli//4.3/stimNo109r15c15v4.3.jpg	 l	 1.880	 GoodTrial	 4.3	 bl
16	 6	 1	 right	 LineStimuli//4.3/stimNo97r6c21v4.3.jpg	 l	 1.715	 GoodTrial	 4.3	 bl
17	 6	 1	 left	 LineStimuli//4.3/stimNo107r2c8v4.3.jpg	 l	 1.591	 GoodTrial	 4.3	 bl
18	 6	 1	 right	 LineStimuli//4.3/stimNo114r10c15v4.3.jpg	 l	 1.707	 GoodTrial	 4.3	 bl
19	 6	 1	 right	 LineStimuli//4.3/stimNo118r11c13v4.3.jpg	 l	 1.566	 GoodTrial	 4.3	 bl
20	 6	 1	 right	 LineStimuli//4.3/stimNo92r2c20v4.3.jpg	 l	 1.928	 GoodTrial	 4.3	 bl
21	 6	 0	 x	 LineStimuli//4.3/stimNo123r0c0v4.3.jpg	 r	 3.048	 GoodTrial	 4.3	 bl
22	 6	 1	 right	 LineStimuli//4.3/stimNo81r10c14v4.3.jpg	 l	 1.698	 GoodTrial	 4.3	 bl
23	 6	 0	 x	 LineStimuli//4.3/stimNo132r0c0v4.3.jpg	 r	 2.256	 GoodTrial	 4.3	 bl
24	 6	 0	 x	 LineStimuli//4.3/stimNo158r0c0v4.3.jpg	 r	 2.807	 GoodTrial	 4.3	 bl
25	 6	 1	 left	 LineStimuli//4.3/stimNo104r15c2v4.3.jpg	 l	 1.703	 GoodTrial	 4.3	 bl
26	 6	 1	 left	 LineStimuli//4.3/stimNo93r9c9v4.3.jpg	 l	 1.709	 GoodTrial	 4.3	 bl
27	 6	 0	 x	 LineStimuli//4.3/stimNo154r0c0v4.3.jpg	 r	 2.114	 GoodTrial	 4.3	 bl
28	 6	 1	 left	 LineStimuli//4.3/stimNo85r3c5v4.3.jpg	 l	 1.535	 GoodTrial	 4.3	 bl
29	 6	 0	 x	 LineStimuli//4.3/stimNo136r0c0v4.3.jpg	 r	 2.109	 GoodTrial	 4.3	 bl
30	 6	 1	 right	 LineStimuli//4.3/stimNo120r8c18v4.3.jpg	 l	 1.547	 GoodTrial	 4.3	 bl
31	 6	 1	 right	 LineStimuli//4.3/stimNo112r10c16v4.3.jpg	 l	 1.627	 GoodTrial	 4.3	 bl
32	 6	 0	 x	 LineStimuli//4.3/stimNo128r0c0v4.3.jpg	 r	 2.408	 GoodTrial	 4.3	 bl
33	 6	 1	 left	 LineStimuli//4.3/stimNo90r10c4v4.3.jpg	 l	 1.560	 GoodTrial	 4.3	 bl
34	 6	 0	 x	 LineStimuli//4.3/stimNo137r0c0v4.3.jpg	 r	 2.526	 GoodTrial	 4.3	 bl
35	 6	 0	 x	 LineStimuli//4.3/stimNo139r0c0v4.3.jpg	 r	 2.022	 GoodTrial	 4.3	 bl
36	 6	 0	 x	 LineStimuli//4.3/stimNo159r0c0v4.3.jpg	 r	 2.057	 GoodTrial	 4.3	 bl
37	 6	 1	 left	 LineStimuli//4.3/stimNo108r5c8v4.3.jpg	 l	 1.696	 GoodTrial	 4.3	 bl
38	 6	 0	 x	 LineStimuli//4.3/stimNo124r0c0v4.3.jpg	 r	 1.990	 GoodTrial	 4.3	 bl
39	 6	 1	 left	 LineStimuli//4.3/stimNo113r11c7v4.3.jpg	 l	 1.548	 GoodTrial	 4.3	 bl
40	 6	 0	 x	 LineStimuli//4.3/stimNo131r0c0v4.3.jpg	 r	 2.528	 GoodTrial	 4.3	 bl
41	 6	 0	 x	 LineStimuli//4.3/stimNo156r0c0v4.3.jpg	 r	 2.653	 GoodTrial	 4.3	 bl
42	 6	 0	 x	 LineStimuli//4.3/stimNo147r0c0v4.3.jpg	 r	 2.741	 GoodTrial	 4.3	 bl
43	 6	 0	 x	 LineStimuli//4.3/stimNo134r0c0v4.3.jpg	 r	 2.804	 GoodTrial	 4.3	 bl
44	 6	 0	 x	 LineStimuli//4.3/stimNo144r0c0v4.3.jpg	 r	 2.680	 GoodTrial	 4.3	 bl
45	 6	 0	 x	 LineStimuli//4.3/stimNo138r0c0v4.3.jpg	 r	 3.131	 GoodTrial	 4.3	 bl
46	 6	 0	 x	 LineStimuli//4.3/stimNo160r0c0v4.3.jpg	 r	 2.348	 GoodTrial	 4.3	 bl
47	 6	 1	 right	 LineStimuli//4.3/stimNo94r12c13v4.3.jpg	 l	 1.749	 GoodTrial	 4.3	 bl
48	 6	 1	 left	 LineStimuli//4.3/stimNo83r4c2v4.3.jpg	 l	 1.864	 GoodTrial	 4.3	 bl
49	 6	 1	 left	 LineStimuli//4.3/stimNo110r6c7v4.3.jpg	 l	 1.697	 GoodTrial	 4.3	 bl
50	 6	 0	 x	 LineStimuli//4.3/stimNo133r0c0v4.3.jpg	 r	 2.143	 GoodTrial	 4.3	 bl
1	 7	 0	 x	 LineStimuli//1.8/stimNo129r0c0v1.8.jpg	 r	 5.424	 GoodTrial	 1.8	 bl
2	 7	 0	 x	 LineStimuli//1.8/stimNo125r0c0v1.8.jpg	 r	 4.080	 GoodTrial	 1.8	 bl
3	 7	 0	 x	 LineStimuli//1.8/stimNo122r0c0v1.8.jpg	 r	 4.528	 GoodTrial	 1.8	 bl
4	 7	 0	 x	 LineStimuli//1.8/stimNo151r0c0v1.8.jpg	 r	 4.673	 GoodTrial	 1.8	 bl
5	 7	 1	 right	 LineStimuli//1.8/stimNo92r10c18v1.8.jpg	 r	 5.254	 GoodTrial	 1.8	 bl
6	 7	 0	 x	 LineStimuli//1.8/stimNo155r0c0v1.8.jpg	 r	 7.706	 GoodTrial	 1.8	 bl
7	 7	 0	 x	 LineStimuli//1.8/stimNo156r0c0v1.8.jpg	 r	 6.209	 GoodTrial	 1.8	 bl
8	 7	 0	 x	 LineStimuli//1.8/stimNo144r0c0v1.8.jpg	 r	 4.723	 GoodTrial	 1.8	 bl
9	 7	 1	 left	 LineStimuli//1.8/stimNo110r4c7v1.8.jpg	 l	 2.458	 GoodTrial	 1.8	 bl
10	 7	 1	 left	 LineStimuli//1.8/stimNo116r4c7v1.8.jpg	 l	 1.893	 GoodTrial	 1.8	 bl
11	 7	 0	 x	 LineStimuli//1.8/stimNo138r0c0v1.8.jpg	 r	 4.523	 GoodTrial	 1.8	 bl
12	 7	 0	 x	 LineStimuli//1.8/stimNo141r0c0v1.8.jpg	 r	 3.267	 GoodTrial	 1.8	 bl
13	 7	 0	 x	 LineStimuli//1.8/stimNo126r0c0v1.8.jpg	 r	 3.993	 GoodTrial	 1.8	 bl
14	 7	 1	 left	 LineStimuli//1.8/stimNo96r13c2v1.8.jpg	 l	 2.523	 GoodTrial	 1.8	 bl
15	 7	 1	 right	 LineStimuli//1.8/stimNo100r9c13v1.8.jpg	 l	 2.565	 GoodTrial	 1.8	 bl
16	 7	 0	 x	 LineStimuli//1.8/stimNo121r0c0v1.8.jpg	 r	 2.385	 GoodTrial	 1.8	 bl
17	 7	 1	 right	 LineStimuli//1.8/stimNo119r3c21v1.8.jpg	 r	 3.888	 GoodTrial	 1.8	 bl
18	 7	 1	 right	 LineStimuli//1.8/stimNo104r3c21v1.8.jpg	 l	 4.764	 GoodTrial	 1.8	 bl
19	 7	 0	 x	 LineStimuli//1.8/stimNo154r0c0v1.8.jpg	 r	 9.039	 GoodTrial	 1.8	 bl
20	 7	 1	 right	 LineStimuli//1.8/stimNo93r3c17v1.8.jpg	 l	 2.267	 GoodTrial	 1.8	 bl
21	 7	 1	 right	 LineStimuli//1.8/stimNo82r7c18v1.8.jpg	 r	 5.259	 GoodTrial	 1.8	 bl
22	 7	 0	 x	 LineStimuli//1.8/stimNo148r0c0v1.8.jpg	 r	 5.255	 GoodTrial	 1.8	 bl
23	 7	 1	 left	 LineStimuli//1.8/stimNo98r15c5v1.8.jpg	 l	 2.783	 GoodTrial	 1.8	 bl
24	 7	 1	 left	 LineStimuli//1.8/stimNo107r5c4v1.8.jpg	 l	 2.240	 GoodTrial	 1.8	 bl
25	 7	 1	 right	 LineStimuli//1.8/stimNo118r11c15v1.8.jpg	 l	 2.599	 GoodTrial	 1.8	 bl
26	 7	 1	 left	 LineStimuli//1.8/stimNo106r13c9v1.8.jpg	 l	 3.239	 GoodTrial	 1.8	 bl
27	 7	 0	 x	 LineStimuli//1.8/stimNo147r0c0v1.8.jpg	 r	 3.418	 GoodTrial	 1.8	 bl
28	 7	 1	 right	 LineStimuli//1.8/stimNo83r6c13v1.8.jpg	 l	 2.575	 GoodTrial	 1.8	 bl
29	 7	 0	 x	 LineStimuli//1.8/stimNo145r0c0v1.8.jpg	 r	 3.640	 GoodTrial	 1.8	 bl
30	 7	 0	 x	 LineStimuli//1.8/stimNo150r0c0v1.8.jpg	 r	 3.976	 GoodTrial	 1.8	 bl
31	 7	 1	 left	 LineStimuli//1.8/stimNo120r14c9v1.8.jpg	 l	 3.187	 GoodTrial	 1.8	 bl
32	 7	 0	 x	 LineStimuli//1.8/stimNo158r0c0v1.8.jpg	 r	 4.995	 GoodTrial	 1.8	 bl
33	 7	 1	 right	 LineStimuli//1.8/stimNo114r8c13v1.8.jpg	 l	 2.152	 GoodTrial	 1.8	 bl
34	 7	 0	 x	 LineStimuli//1.8/stimNo159r0c0v1.8.jpg	 r	 5.252	 GoodTrial	 1.8	 bl
35	 7	 1	 left	 LineStimuli//1.8/stimNo87r14c2v1.8.jpg	 l	 1.736	 GoodTrial	 1.8	 bl
36	 7	 1	 right	 LineStimuli//1.8/stimNo111r4c21v1.8.jpg	 l	 3.296	 GoodTrial	 1.8	 bl
37	 7	 0	 x	 LineStimuli//1.8/stimNo149r0c0v1.8.jpg	 r	 7.408	 GoodTrial	 1.8	 bl
38	 7	 1	 right	 LineStimuli//1.8/stimNo97r15c18v1.8.jpg	 r	 4.420	 GoodTrial	 1.8	 bl
39	 7	 1	 right	 LineStimuli//1.8/stimNo109r7c17v1.8.jpg	 l	 7.864	 GoodTrial	 1.8	 bl
40	 7	 0	 x	 LineStimuli//1.8/stimNo133r0c0v1.8.jpg	 r	 7.970	 GoodTrial	 1.8	 bl
41	 7	 1	 left	 LineStimuli//1.8/stimNo115r5c9v1.8.jpg	 l	 3.978	 GoodTrial	 1.8	 bl
42	 7	 0	 x	 LineStimuli//1.8/stimNo124r0c0v1.8.jpg	 r	 5.436	 GoodTrial	 1.8	 bl
43	 7	 1	 left	 LineStimuli//1.8/stimNo91r14c4v1.8.jpg	 l	 2.306	 GoodTrial	 1.8	 bl
44	 7	 0	 x	 LineStimuli//1.8/stimNo137r0c0v1.8.jpg	 r	 5.877	 GoodTrial	 1.8	 bl
45	 7	 0	 x	 LineStimuli//1.8/stimNo157r0c0v1.8.jpg	 r	 5.652	 GoodTrial	 1.8	 bl
46	 7	 1	 right	 LineStimuli//1.8/stimNo108r9c21v1.8.jpg	 r	 5.164	 GoodTrial	 1.8	 bl
47	 7	 0	 x	 LineStimuli//1.8/stimNo140r0c0v1.8.jpg	 r	 5.658	 GoodTrial	 1.8	 bl
48	 7	 0	 x	 LineStimuli//1.8/stimNo127r0c0v1.8.jpg	 r	 9.272	 GoodTrial	 1.8	 bl
49	 7	 1	 right	 LineStimuli//1.8/stimNo117r10c16v1.8.jpg	 l	 2.471	 GoodTrial	 1.8	 bl
50	 7	 0	 x	 LineStimuli//1.8/stimNo136r0c0v1.8.jpg	 r	 4.870	 GoodTrial	 1.8	 bl
