Trial	Block	Target_pr	Target_side	Name	Key	RT	Message	Block_Type	Condition
1	 1	 1	 left	 LineStimuli//2.3/stimNo108r15c6v2.3.jpg	 r	 38.544	 GoodTrial	 2.3	 bl
2	 1	 0	 x	 LineStimuli//2.3/stimNo144r0c0v2.3.jpg	 r	 40.778	 GoodTrial	 2.3	 bl
3	 1	 0	 x	 LineStimuli//2.3/stimNo140r0c0v2.3.jpg	 r	 34.833	 GoodTrial	 2.3	 bl
4	 1	 1	 left	 LineStimuli//2.3/stimNo112r3c2v2.3.jpg	 l	 3.156	 GoodTrial	 2.3	 bl
5	 1	 0	 x	 LineStimuli//2.3/stimNo149r0c0v2.3.jpg	 r	 28.953	 GoodTrial	 2.3	 bl
6	 1	 0	 x	 LineStimuli//2.3/stimNo121r0c0v2.3.jpg	 r	 27.296	 GoodTrial	 2.3	 bl
7	 1	 0	 x	 LineStimuli//2.3/stimNo160r0c0v2.3.jpg	 r	 27.292	 GoodTrial	 2.3	 bl
8	 1	 0	 x	 LineStimuli//2.3/stimNo143r0c0v2.3.jpg	 r	 28.515	 GoodTrial	 2.3	 bl
9	 1	 0	 x	 LineStimuli//2.3/stimNo156r0c0v2.3.jpg	 r	 24.376	 GoodTrial	 2.3	 bl
10	 1	 0	 x	 LineStimuli//2.3/stimNo158r0c0v2.3.jpg	 r	 22.911	 GoodTrial	 2.3	 bl
11	 1	 0	 x	 LineStimuli//2.3/stimNo151r0c0v2.3.jpg	 r	 21.491	 GoodTrial	 2.3	 bl
12	 1	 1	 left	 LineStimuli//2.3/stimNo114r7c8v2.3.jpg	 l	 8.164	 GoodTrial	 2.3	 bl
13	 1	 0	 x	 LineStimuli//2.3/stimNo153r0c0v2.3.jpg	 r	 25.740	 GoodTrial	 2.3	 bl
14	 1	 0	 x	 LineStimuli//2.3/stimNo122r0c0v2.3.jpg	 r	 23.421	 GoodTrial	 2.3	 bl
15	 1	 1	 right	 LineStimuli//2.3/stimNo110r15c19v2.3.jpg	 r	 24.788	 GoodTrial	 2.3	 bl
16	 1	 1	 left	 LineStimuli//2.3/stimNo81r4c3v2.3.jpg	 l	 8.704	 GoodTrial	 2.3	 bl
17	 1	 1	 left	 LineStimuli//2.3/stimNo115r7c3v2.3.jpg	 l	 9.353	 GoodTrial	 2.3	 bl
18	 1	 1	 left	 LineStimuli//2.3/stimNo116r2c2v2.3.jpg	 l	 6.100	 GoodTrial	 2.3	 bl
19	 1	 1	 left	 LineStimuli//2.3/stimNo88r15c2v2.3.jpg	 r	 22.770	 GoodTrial	 2.3	 bl
20	 1	 0	 x	 LineStimuli//2.3/stimNo152r0c0v2.3.jpg	 r	 34.092	 GoodTrial	 2.3	 bl
21	 1	 1	 left	 LineStimuli//2.3/stimNo94r8c9v2.3.jpg	 l	 12.715	 GoodTrial	 2.3	 bl
22	 1	 1	 left	 LineStimuli//2.3/stimNo95r13c9v2.3.jpg	 l	 14.327	 GoodTrial	 2.3	 bl
23	 1	 1	 right	 LineStimuli//2.3/stimNo85r4c15v2.3.jpg	 l	 17.483	 GoodTrial	 2.3	 bl
24	 1	 0	 x	 LineStimuli//2.3/stimNo137r0c0v2.3.jpg	 r	 28.507	 GoodTrial	 2.3	 bl
25	 1	 1	 left	 LineStimuli//2.3/stimNo104r2c4v2.3.jpg	 r	 26.483	 GoodTrial	 2.3	 bl
26	 1	 1	 left	 LineStimuli//2.3/stimNo106r9c9v2.3.jpg	 r	 38.391	 GoodTrial	 2.3	 bl
27	 1	 1	 right	 LineStimuli//2.3/stimNo103r11c21v2.3.jpg	 l	 4.504	 GoodTrial	 2.3	 bl
28	 1	 1	 right	 LineStimuli//2.3/stimNo120r4c17v2.3.jpg	 r	 32.527	 GoodTrial	 2.3	 bl
29	 1	 0	 x	 LineStimuli//2.3/stimNo142r0c0v2.3.jpg	 r	 33.569	 GoodTrial	 2.3	 bl
30	 1	 1	 left	 LineStimuli//2.3/stimNo83r14c4v2.3.jpg	 l	 6.037	 GoodTrial	 2.3	 bl
31	 1	 1	 right	 LineStimuli//2.3/stimNo99r2c13v2.3.jpg	 r	 34.008	 GoodTrial	 2.3	 bl
32	 1	 1	 left	 LineStimuli//2.3/stimNo82r12c4v2.3.jpg	 r	 44.809	 GoodTrial	 2.3	 bl
33	 1	 1	 left	 LineStimuli//2.3/stimNo113r3c8v2.3.jpg	 r	 44.456	 GoodTrial	 2.3	 bl
34	 1	 1	 right	 LineStimuli//2.3/stimNo118r4c17v2.3.jpg	 l	 34.615	 GoodTrial	 2.3	 bl
35	 1	 1	 right	 LineStimuli//2.3/stimNo93r4c16v2.3.jpg	 l	 2.974	 GoodTrial	 2.3	 bl
36	 1	 1	 left	 LineStimuli//2.3/stimNo117r11c8v2.3.jpg	 r	 37.624	 GoodTrial	 2.3	 bl
37	 1	 1	 right	 LineStimuli//2.3/stimNo84r15c14v2.3.jpg	 r	 50.591	 GoodTrial	 2.3	 bl
38	 1	 0	 x	 LineStimuli//2.3/stimNo147r0c0v2.3.jpg	 r	 36.757	 GoodTrial	 2.3	 bl
39	 1	 1	 right	 LineStimuli//2.3/stimNo87r13c19v2.3.jpg	 l	 32.457	 GoodTrial	 2.3	 bl
40	 1	 1	 right	 LineStimuli//2.3/stimNo107r11c15v2.3.jpg	 l	 15.960	 GoodTrial	 2.3	 bl
41	 1	 0	 x	 LineStimuli//2.3/stimNo131r0c0v2.3.jpg	 r	 37.504	 GoodTrial	 2.3	 bl
42	 1	 1	 left	 LineStimuli//2.3/stimNo119r3c2v2.3.jpg	 l	 8.018	 GoodTrial	 2.3	 bl
43	 1	 0	 x	 LineStimuli//2.3/stimNo127r0c0v2.3.jpg	 r	 33.620	 GoodTrial	 2.3	 bl
44	 1	 0	 x	 LineStimuli//2.3/stimNo134r0c0v2.3.jpg	 r	 44.616	 GoodTrial	 2.3	 bl
45	 1	 0	 x	 LineStimuli//2.3/stimNo130r0c0v2.3.jpg	 r	 31.349	 GoodTrial	 2.3	 bl
46	 1	 0	 x	 LineStimuli//2.3/stimNo148r0c0v2.3.jpg	 r	 31.687	 GoodTrial	 2.3	 bl
47	 1	 0	 x	 LineStimuli//2.3/stimNo157r0c0v2.3.jpg	 r	 38.927	 GoodTrial	 2.3	 bl
48	 1	 0	 x	 LineStimuli//2.3/stimNo128r0c0v2.3.jpg	 r	 29.512	 GoodTrial	 2.3	 bl
49	 1	 0	 x	 LineStimuli//2.3/stimNo141r0c0v2.3.jpg	 r	 33.352	 GoodTrial	 2.3	 bl
50	 1	 1	 right	 LineStimuli//2.3/stimNo101r8c14v2.3.jpg	 l	 14.613	 GoodTrial	 2.3	 bl
1	 2	 1	 right	 LineStimuli//3.3/stimNo87r15c13v3.3.jpg	 l	 24.888	 GoodTrial	 3.3	 bl
2	 2	 1	 right	 LineStimuli//3.3/stimNo91r12c16v3.3.jpg	 l	 14.445	 GoodTrial	 3.3	 bl
3	 2	 0	 x	 LineStimuli//3.3/stimNo133r0c0v3.3.jpg	 r	 18.803	 GoodTrial	 3.3	 bl
4	 2	 0	 x	 LineStimuli//3.3/stimNo141r0c0v3.3.jpg	 r	 17.173	 GoodTrial	 3.3	 bl
5	 2	 1	 right	 LineStimuli//3.3/stimNo116r10c14v3.3.jpg	 l	 8.767	 GoodTrial	 3.3	 bl
6	 2	 0	 x	 LineStimuli//3.3/stimNo152r0c0v3.3.jpg	 r	 16.190	 GoodTrial	 3.3	 bl
7	 2	 1	 left	 LineStimuli//3.3/stimNo115r3c4v3.3.jpg	 l	 3.537	 GoodTrial	 3.3	 bl
8	 2	 0	 x	 LineStimuli//3.3/stimNo130r0c0v3.3.jpg	 r	 15.639	 GoodTrial	 3.3	 bl
9	 2	 1	 right	 LineStimuli//3.3/stimNo101r7c16v3.3.jpg	 l	 5.426	 GoodTrial	 3.3	 bl
10	 2	 0	 x	 LineStimuli//3.3/stimNo146r0c0v3.3.jpg	 r	 11.666	 GoodTrial	 3.3	 bl
11	 2	 0	 x	 LineStimuli//3.3/stimNo137r0c0v3.3.jpg	 r	 16.502	 GoodTrial	 3.3	 bl
12	 2	 0	 x	 LineStimuli//3.3/stimNo124r0c0v3.3.jpg	 r	 16.968	 GoodTrial	 3.3	 bl
13	 2	 1	 left	 LineStimuli//3.3/stimNo85r6c4v3.3.jpg	 l	 7.434	 GoodTrial	 3.3	 bl
14	 2	 0	 x	 LineStimuli//3.3/stimNo154r0c0v3.3.jpg	 l	 10.474	 GoodTrial	 3.3	 bl
15	 2	 1	 right	 LineStimuli//3.3/stimNo107r2c17v3.3.jpg	 x	 1.154	 GoodTrial	 3.3	 bl
16	 2	 0	 x	 LineStimuli//3.3/stimNo145r0c0v3.3.jpg	 r	 21.580	 GoodTrial	 3.3	 bl
17	 2	 1	 left	 LineStimuli//3.3/stimNo110r4c3v3.3.jpg	 l	 3.495	 GoodTrial	 3.3	 bl
18	 2	 1	 right	 LineStimuli//3.3/stimNo97r6c13v3.3.jpg	 l	 2.669	 GoodTrial	 3.3	 bl
19	 2	 1	 right	 LineStimuli//3.3/stimNo88r9c14v3.3.jpg	 l	 2.577	 GoodTrial	 3.3	 bl
20	 2	 0	 x	 LineStimuli//3.3/stimNo158r0c0v3.3.jpg	 r	 7.333	 GoodTrial	 3.3	 bl
21	 2	 0	 x	 LineStimuli//3.3/stimNo138r0c0v3.3.jpg	 r	 4.521	 GoodTrial	 3.3	 bl
22	 2	 1	 left	 LineStimuli//3.3/stimNo117r2c5v3.3.jpg	 l	 3.197	 GoodTrial	 3.3	 bl
23	 2	 1	 right	 LineStimuli//3.3/stimNo113r13c15v3.3.jpg	 l	 2.391	 GoodTrial	 3.3	 bl
24	 2	 0	 x	 LineStimuli//3.3/stimNo123r0c0v3.3.jpg	 r	 3.993	 GoodTrial	 3.3	 bl
25	 2	 1	 right	 LineStimuli//3.3/stimNo105r7c20v3.3.jpg	 l	 3.507	 GoodTrial	 3.3	 bl
26	 2	 1	 left	 LineStimuli//3.3/stimNo83r8c3v3.3.jpg	 l	 2.537	 GoodTrial	 3.3	 bl
27	 2	 0	 x	 LineStimuli//3.3/stimNo153r0c0v3.3.jpg	 r	 5.265	 GoodTrial	 3.3	 bl
28	 2	 0	 x	 LineStimuli//3.3/stimNo157r0c0v3.3.jpg	 l	 5.459	 GoodTrial	 3.3	 bl
29	 2	 1	 right	 LineStimuli//3.3/stimNo89r5c21v3.3.jpg	 l	 2.665	 GoodTrial	 3.3	 bl
30	 2	 0	 x	 LineStimuli//3.3/stimNo149r0c0v3.3.jpg	 r	 5.617	 GoodTrial	 3.3	 bl
31	 2	 1	 left	 LineStimuli//3.3/stimNo111r15c7v3.3.jpg	 l	 2.137	 GoodTrial	 3.3	 bl
32	 2	 1	 left	 LineStimuli//3.3/stimNo92r10c7v3.3.jpg	 l	 2.273	 GoodTrial	 3.3	 bl
33	 2	 1	 left	 LineStimuli//3.3/stimNo93r3c5v3.3.jpg	 l	 2.333	 GoodTrial	 3.3	 bl
34	 2	 0	 x	 LineStimuli//3.3/stimNo144r0c0v3.3.jpg	 r	 4.403	 GoodTrial	 3.3	 bl
35	 2	 0	 x	 LineStimuli//3.3/stimNo156r0c0v3.3.jpg	 r	 4.209	 GoodTrial	 3.3	 bl
36	 2	 1	 left	 LineStimuli//3.3/stimNo86r5c7v3.3.jpg	 l	 2.007	 GoodTrial	 3.3	 bl
37	 2	 1	 left	 LineStimuli//3.3/stimNo106r9c9v3.3.jpg	 l	 1.697	 GoodTrial	 3.3	 bl
38	 2	 0	 x	 LineStimuli//3.3/stimNo159r0c0v3.3.jpg	 r	 4.871	 GoodTrial	 3.3	 bl
39	 2	 0	 x	 LineStimuli//3.3/stimNo136r0c0v3.3.jpg	 r	 3.445	 GoodTrial	 3.3	 bl
40	 2	 1	 left	 LineStimuli//3.3/stimNo100r3c3v3.3.jpg	 l	 1.832	 GoodTrial	 3.3	 bl
41	 2	 1	 right	 LineStimuli//3.3/stimNo102r13c13v3.3.jpg	 l	 1.924	 GoodTrial	 3.3	 bl
42	 2	 1	 right	 LineStimuli//3.3/stimNo118r3c16v3.3.jpg	 l	 1.857	 GoodTrial	 3.3	 bl
43	 2	 1	 right	 LineStimuli//3.3/stimNo96r8c18v3.3.jpg	 l	 3.039	 GoodTrial	 3.3	 bl
44	 2	 0	 x	 LineStimuli//3.3/stimNo155r0c0v3.3.jpg	 r	 4.061	 GoodTrial	 3.3	 bl
45	 2	 1	 right	 LineStimuli//3.3/stimNo82r11c20v3.3.jpg	 r	 1.927	 GoodTrial	 3.3	 bl
46	 2	 1	 left	 LineStimuli//3.3/stimNo90r2c9v3.3.jpg	 r	 1.961	 GoodTrial	 3.3	 bl
47	 2	 0	 x	 LineStimuli//3.3/stimNo142r0c0v3.3.jpg	 r	 4.455	 GoodTrial	 3.3	 bl
48	 2	 1	 right	 LineStimuli//3.3/stimNo120r8c14v3.3.jpg	 l	 4.726	 GoodTrial	 3.3	 bl
49	 2	 0	 x	 LineStimuli//3.3/stimNo143r0c0v3.3.jpg	 r	 5.639	 GoodTrial	 3.3	 bl
50	 2	 0	 x	 LineStimuli//3.3/stimNo139r0c0v3.3.jpg	 r	 4.574	 GoodTrial	 3.3	 bl
1	 3	 1	 left	 LineStimuli//1.8/stimNo98r15c5v1.8.jpg	 l	 4.238	 GoodTrial	 1.8	 bl
2	 3	 1	 right	 LineStimuli//1.8/stimNo82r7c18v1.8.jpg	 r	 8.282	 GoodTrial	 1.8	 bl
3	 3	 1	 right	 LineStimuli//1.8/stimNo111r4c21v1.8.jpg	 r	 14.257	 GoodTrial	 1.8	 bl
4	 3	 1	 left	 LineStimuli//1.8/stimNo89r11c6v1.8.jpg	 l	 19.872	 GoodTrial	 1.8	 bl
5	 3	 1	 left	 LineStimuli//1.8/stimNo94r13c8v1.8.jpg	 l	 5.825	 GoodTrial	 1.8	 bl
6	 3	 1	 left	 LineStimuli//1.8/stimNo105r6c5v1.8.jpg	 r	 18.855	 GoodTrial	 1.8	 bl
7	 3	 0	 x	 LineStimuli//1.8/stimNo148r0c0v1.8.jpg	 r	 23.337	 GoodTrial	 1.8	 bl
8	 3	 1	 right	 LineStimuli//1.8/stimNo104r3c21v1.8.jpg	 r	 15.203	 GoodTrial	 1.8	 bl
9	 3	 0	 x	 LineStimuli//1.8/stimNo158r0c0v1.8.jpg	 r	 18.909	 GoodTrial	 1.8	 bl
10	 3	 0	 x	 LineStimuli//1.8/stimNo137r0c0v1.8.jpg	 r	 21.730	 GoodTrial	 1.8	 bl
11	 3	 0	 x	 LineStimuli//1.8/stimNo131r0c0v1.8.jpg	 r	 20.168	 GoodTrial	 1.8	 bl
12	 3	 1	 right	 LineStimuli//1.8/stimNo101r4c13v1.8.jpg	 l	 18.688	 GoodTrial	 1.8	 bl
13	 3	 0	 x	 LineStimuli//1.8/stimNo124r0c0v1.8.jpg	 r	 26.916	 GoodTrial	 1.8	 bl
14	 3	 1	 left	 LineStimuli//1.8/stimNo110r4c7v1.8.jpg	 l	 5.718	 GoodTrial	 1.8	 bl
15	 3	 1	 right	 LineStimuli//1.8/stimNo93r3c17v1.8.jpg	 l	 7.082	 GoodTrial	 1.8	 bl
16	 3	 0	 x	 LineStimuli//1.8/stimNo145r0c0v1.8.jpg	 r	 10.780	 GoodTrial	 1.8	 bl
17	 3	 1	 right	 LineStimuli//1.8/stimNo84r11c21v1.8.jpg	 r	 9.316	 GoodTrial	 1.8	 bl
18	 3	 0	 x	 LineStimuli//1.8/stimNo159r0c0v1.8.jpg	 r	 20.108	 GoodTrial	 1.8	 bl
19	 3	 1	 right	 LineStimuli//1.8/stimNo119r3c21v1.8.jpg	 l	 24.817	 GoodTrial	 1.8	 bl
20	 3	 0	 x	 LineStimuli//1.8/stimNo125r0c0v1.8.jpg	 r	 23.483	 GoodTrial	 1.8	 bl
21	 3	 0	 x	 LineStimuli//1.8/stimNo143r0c0v1.8.jpg	 r	 21.799	 GoodTrial	 1.8	 bl
22	 3	 0	 x	 LineStimuli//1.8/stimNo142r0c0v1.8.jpg	 r	 19.549	 GoodTrial	 1.8	 bl
23	 3	 1	 right	 LineStimuli//1.8/stimNo99r12c16v1.8.jpg	 r	 16.121	 GoodTrial	 1.8	 bl
24	 3	 0	 x	 LineStimuli//1.8/stimNo156r0c0v1.8.jpg	 r	 40.290	 GoodTrial	 1.8	 bl
25	 3	 0	 x	 LineStimuli//1.8/stimNo150r0c0v1.8.jpg	 r	 14.030	 GoodTrial	 1.8	 bl
26	 3	 1	 right	 LineStimuli//1.8/stimNo117r10c16v1.8.jpg	 r	 14.608	 GoodTrial	 1.8	 bl
27	 3	 1	 left	 LineStimuli//1.8/stimNo91r14c4v1.8.jpg	 r	 19.652	 GoodTrial	 1.8	 bl
28	 3	 1	 right	 LineStimuli//1.8/stimNo97r15c18v1.8.jpg	 r	 18.632	 GoodTrial	 1.8	 bl
29	 3	 1	 right	 LineStimuli//1.8/stimNo109r7c17v1.8.jpg	 l	 23.559	 GoodTrial	 1.8	 bl
30	 3	 0	 x	 LineStimuli//1.8/stimNo132r0c0v1.8.jpg	 r	 30.899	 GoodTrial	 1.8	 bl
31	 3	 0	 x	 LineStimuli//1.8/stimNo123r0c0v1.8.jpg	 r	 31.225	 GoodTrial	 1.8	 bl
32	 3	 0	 x	 LineStimuli//1.8/stimNo135r0c0v1.8.jpg	 r	 18.188	 GoodTrial	 1.8	 bl
33	 3	 0	 x	 LineStimuli//1.8/stimNo160r0c0v1.8.jpg	 r	 30.982	 GoodTrial	 1.8	 bl
34	 3	 1	 left	 LineStimuli//1.8/stimNo115r5c9v1.8.jpg	 r	 26.918	 GoodTrial	 1.8	 bl
35	 3	 0	 x	 LineStimuli//1.8/stimNo146r0c0v1.8.jpg	 r	 36.919	 GoodTrial	 1.8	 bl
36	 3	 0	 x	 LineStimuli//1.8/stimNo139r0c0v1.8.jpg	 r	 18.703	 GoodTrial	 1.8	 bl
37	 3	 1	 right	 LineStimuli//1.8/stimNo92r10c18v1.8.jpg	 r	 15.746	 GoodTrial	 1.8	 bl
38	 3	 0	 x	 LineStimuli//1.8/stimNo128r0c0v1.8.jpg	 r	 31.755	 GoodTrial	 1.8	 bl
39	 3	 1	 left	 LineStimuli//1.8/stimNo86r14c4v1.8.jpg	 l	 4.241	 GoodTrial	 1.8	 bl
40	 3	 0	 x	 LineStimuli//1.8/stimNo130r0c0v1.8.jpg	 r	 21.031	 GoodTrial	 1.8	 bl
41	 3	 0	 x	 LineStimuli//1.8/stimNo154r0c0v1.8.jpg	 r	 20.573	 GoodTrial	 1.8	 bl
42	 3	 0	 x	 LineStimuli//1.8/stimNo126r0c0v1.8.jpg	 r	 31.688	 GoodTrial	 1.8	 bl
43	 3	 1	 left	 LineStimuli//1.8/stimNo88r15c9v1.8.jpg	 r	 18.439	 GoodTrial	 1.8	 bl
44	 3	 1	 right	 LineStimuli//1.8/stimNo100r9c13v1.8.jpg	 r	 30.842	 GoodTrial	 1.8	 bl
45	 3	 1	 right	 LineStimuli//1.8/stimNo112r6c15v1.8.jpg	 l	 23.919	 GoodTrial	 1.8	 bl
46	 3	 0	 x	 LineStimuli//1.8/stimNo149r0c0v1.8.jpg	 r	 10.655	 GoodTrial	 1.8	 bl
47	 3	 0	 x	 LineStimuli//1.8/stimNo144r0c0v1.8.jpg	 r	 7.283	 GoodTrial	 1.8	 bl
48	 3	 0	 x	 LineStimuli//1.8/stimNo129r0c0v1.8.jpg	 r	 11.681	 GoodTrial	 1.8	 bl
49	 3	 1	 right	 LineStimuli//1.8/stimNo118r11c15v1.8.jpg	 r	 10.219	 GoodTrial	 1.8	 bl
50	 3	 0	 x	 LineStimuli//1.8/stimNo138r0c0v1.8.jpg	 l	 17.537	 GoodTrial	 1.8	 bl
1	 4	 1	 left	 LineStimuli//1.5/stimNo110r7c3v1.5.jpg	 r	 21.356	 GoodTrial	 1.5	 bl
2	 4	 0	 x	 LineStimuli//1.5/stimNo159r0c0v1.5.jpg	 r	 22.689	 GoodTrial	 1.5	 bl
3	 4	 1	 right	 LineStimuli//1.5/stimNo105r3c18v1.5.jpg	 l	 10.296	 GoodTrial	 1.5	 bl
4	 4	 1	 left	 LineStimuli//1.5/stimNo102r7c6v1.5.jpg	 l	 8.136	 GoodTrial	 1.5	 bl
5	 4	 0	 x	 LineStimuli//1.5/stimNo148r0c0v1.5.jpg	 r	 22.616	 GoodTrial	 1.5	 bl
6	 4	 1	 right	 LineStimuli//1.5/stimNo103r13c17v1.5.jpg	 l	 8.735	 GoodTrial	 1.5	 bl
7	 4	 1	 right	 LineStimuli//1.5/stimNo92r6c18v1.5.jpg	 r	 11.544	 GoodTrial	 1.5	 bl
8	 4	 0	 x	 LineStimuli//1.5/stimNo153r0c0v1.5.jpg	 r	 17.406	 GoodTrial	 1.5	 bl
9	 4	 0	 x	 LineStimuli//1.5/stimNo154r0c0v1.5.jpg	 r	 14.976	 GoodTrial	 1.5	 bl
10	 4	 0	 x	 LineStimuli//1.5/stimNo131r0c0v1.5.jpg	 r	 14.612	 GoodTrial	 1.5	 bl
11	 4	 0	 x	 LineStimuli//1.5/stimNo146r0c0v1.5.jpg	 r	 19.447	 GoodTrial	 1.5	 bl
12	 4	 0	 x	 LineStimuli//1.5/stimNo122r0c0v1.5.jpg	 r	 14.317	 GoodTrial	 1.5	 bl
13	 4	 1	 left	 LineStimuli//1.5/stimNo114r4c4v1.5.jpg	 r	 17.778	 GoodTrial	 1.5	 bl
14	 4	 0	 x	 LineStimuli//1.5/stimNo129r0c0v1.5.jpg	 r	 15.235	 GoodTrial	 1.5	 bl
15	 4	 0	 x	 LineStimuli//1.5/stimNo158r0c0v1.5.jpg	 r	 12.306	 GoodTrial	 1.5	 bl
16	 4	 0	 x	 LineStimuli//1.5/stimNo123r0c0v1.5.jpg	 r	 13.993	 GoodTrial	 1.5	 bl
17	 4	 1	 right	 LineStimuli//1.5/stimNo84r3c18v1.5.jpg	 l	 1.885	 GoodTrial	 1.5	 bl
18	 4	 1	 left	 LineStimuli//1.5/stimNo117r7c8v1.5.jpg	 r	 14.021	 GoodTrial	 1.5	 bl
19	 4	 0	 x	 LineStimuli//1.5/stimNo157r0c0v1.5.jpg	 r	 18.906	 GoodTrial	 1.5	 bl
20	 4	 0	 x	 LineStimuli//1.5/stimNo130r0c0v1.5.jpg	 r	 11.028	 GoodTrial	 1.5	 bl
21	 4	 1	 right	 LineStimuli//1.5/stimNo118r9c20v1.5.jpg	 r	 13.756	 GoodTrial	 1.5	 bl
22	 4	 1	 right	 LineStimuli//1.5/stimNo108r13c15v1.5.jpg	 x	 1.032	 GoodTrial	 1.5	 bl
23	 4	 0	 x	 LineStimuli//1.5/stimNo121r0c0v1.5.jpg	 l	 8.248	 GoodTrial	 1.5	 bl
24	 4	 1	 right	 LineStimuli//1.5/stimNo86r6c16v1.5.jpg	 r	 13.800	 GoodTrial	 1.5	 bl
25	 4	 0	 x	 LineStimuli//1.5/stimNo136r0c0v1.5.jpg	 r	 14.657	 GoodTrial	 1.5	 bl
26	 4	 1	 left	 LineStimuli//1.5/stimNo116r7c7v1.5.jpg	 l	 7.055	 GoodTrial	 1.5	 bl
27	 4	 1	 right	 LineStimuli//1.5/stimNo90r3c15v1.5.jpg	 r	 7.995	 GoodTrial	 1.5	 bl
28	 4	 1	 left	 LineStimuli//1.5/stimNo91r9c3v1.5.jpg	 r	 22.302	 GoodTrial	 1.5	 bl
29	 4	 1	 right	 LineStimuli//1.5/stimNo115r14c18v1.5.jpg	 r	 27.343	 GoodTrial	 1.5	 bl
30	 4	 1	 right	 LineStimuli//1.5/stimNo107r2c19v1.5.jpg	 r	 31.656	 GoodTrial	 1.5	 bl
31	 4	 1	 right	 LineStimuli//1.5/stimNo101r5c20v1.5.jpg	 r	 30.911	 GoodTrial	 1.5	 bl
32	 4	 0	 x	 LineStimuli//1.5/stimNo140r0c0v1.5.jpg	 l	 4.020	 GoodTrial	 1.5	 bl
33	 4	 1	 left	 LineStimuli//1.5/stimNo85r2c5v1.5.jpg	 r	 23.386	 GoodTrial	 1.5	 bl
34	 4	 1	 right	 LineStimuli//1.5/stimNo104r5c18v1.5.jpg	 r	 33.530	 GoodTrial	 1.5	 bl
35	 4	 1	 left	 LineStimuli//1.5/stimNo87r12c5v1.5.jpg	 l	 2.824	 GoodTrial	 1.5	 bl
36	 4	 0	 x	 LineStimuli//1.5/stimNo160r0c0v1.5.jpg	 l	 5.092	 GoodTrial	 1.5	 bl
37	 4	 1	 left	 LineStimuli//1.5/stimNo109r8c6v1.5.jpg	 r	 29.161	 GoodTrial	 1.5	 bl
38	 4	 0	 x	 LineStimuli//1.5/stimNo149r0c0v1.5.jpg	 l	 26.485	 GoodTrial	 1.5	 bl
39	 4	 0	 x	 LineStimuli//1.5/stimNo145r0c0v1.5.jpg	 r	 18.059	 GoodTrial	 1.5	 bl
40	 4	 1	 right	 LineStimuli//1.5/stimNo93r14c18v1.5.jpg	 r	 18.927	 GoodTrial	 1.5	 bl
41	 4	 1	 right	 LineStimuli//1.5/stimNo82r11c15v1.5.jpg	 r	 23.343	 GoodTrial	 1.5	 bl
42	 4	 0	 x	 LineStimuli//1.5/stimNo125r0c0v1.5.jpg	 r	 29.566	 GoodTrial	 1.5	 bl
43	 4	 1	 left	 LineStimuli//1.5/stimNo83r12c7v1.5.jpg	 l	 19.184	 GoodTrial	 1.5	 bl
44	 4	 0	 x	 LineStimuli//1.5/stimNo126r0c0v1.5.jpg	 l	 8.715	 GoodTrial	 1.5	 bl
45	 4	 0	 x	 LineStimuli//1.5/stimNo133r0c0v1.5.jpg	 r	 42.494	 GoodTrial	 1.5	 bl
46	 4	 0	 x	 LineStimuli//1.5/stimNo137r0c0v1.5.jpg	 r	 30.977	 GoodTrial	 1.5	 bl
47	 4	 1	 left	 LineStimuli//1.5/stimNo113r4c4v1.5.jpg	 l	 7.471	 GoodTrial	 1.5	 bl
48	 4	 0	 x	 LineStimuli//1.5/stimNo147r0c0v1.5.jpg	 r	 22.737	 GoodTrial	 1.5	 bl
49	 4	 0	 x	 LineStimuli//1.5/stimNo124r0c0v1.5.jpg	 r	 25.141	 GoodTrial	 1.5	 bl
50	 4	 1	 left	 LineStimuli//1.5/stimNo89r8c9v1.5.jpg	 l	 9.121	 GoodTrial	 1.5	 bl
1	 5	 1	 right	 LineStimuli//4.3/stimNo81r10c14v4.3.jpg	 l	 2.943	 GoodTrial	 4.3	 bl
2	 5	 1	 left	 LineStimuli//4.3/stimNo86r7c3v4.3.jpg	 l	 1.916	 GoodTrial	 4.3	 bl
3	 5	 1	 right	 LineStimuli//4.3/stimNo89r3c17v4.3.jpg	 l	 1.765	 GoodTrial	 4.3	 bl
4	 5	 0	 x	 LineStimuli//4.3/stimNo141r0c0v4.3.jpg	 r	 3.185	 GoodTrial	 4.3	 bl
5	 5	 1	 left	 LineStimuli//4.3/stimNo87r3c5v4.3.jpg	 l	 1.551	 GoodTrial	 4.3	 bl
6	 5	 1	 left	 LineStimuli//4.3/stimNo107r2c8v4.3.jpg	 l	 1.635	 GoodTrial	 4.3	 bl
7	 5	 0	 x	 LineStimuli//4.3/stimNo131r0c0v4.3.jpg	 r	 2.337	 GoodTrial	 4.3	 bl
8	 5	 0	 x	 LineStimuli//4.3/stimNo138r0c0v4.3.jpg	 r	 2.304	 GoodTrial	 4.3	 bl
9	 5	 1	 right	 LineStimuli//4.3/stimNo114r10c15v4.3.jpg	 l	 1.879	 GoodTrial	 4.3	 bl
10	 5	 1	 right	 LineStimuli//4.3/stimNo91r9c13v4.3.jpg	 l	 1.665	 GoodTrial	 4.3	 bl
11	 5	 1	 right	 LineStimuli//4.3/stimNo112r10c16v4.3.jpg	 l	 1.629	 GoodTrial	 4.3	 bl
12	 5	 1	 left	 LineStimuli//4.3/stimNo98r3c8v4.3.jpg	 l	 1.530	 GoodTrial	 4.3	 bl
13	 5	 0	 x	 LineStimuli//4.3/stimNo133r0c0v4.3.jpg	 r	 2.136	 GoodTrial	 4.3	 bl
14	 5	 1	 right	 LineStimuli//4.3/stimNo115r10c18v4.3.jpg	 l	 1.642	 GoodTrial	 4.3	 bl
15	 5	 0	 x	 LineStimuli//4.3/stimNo158r0c0v4.3.jpg	 r	 2.277	 GoodTrial	 4.3	 bl
16	 5	 1	 left	 LineStimuli//4.3/stimNo108r5c8v4.3.jpg	 l	 1.488	 GoodTrial	 4.3	 bl
17	 5	 1	 right	 LineStimuli//4.3/stimNo82r7c18v4.3.jpg	 l	 1.872	 GoodTrial	 4.3	 bl
18	 5	 0	 x	 LineStimuli//4.3/stimNo129r0c0v4.3.jpg	 r	 2.103	 GoodTrial	 4.3	 bl
19	 5	 1	 left	 LineStimuli//4.3/stimNo111r10c9v4.3.jpg	 l	 1.864	 GoodTrial	 4.3	 bl
20	 5	 1	 left	 LineStimuli//4.3/stimNo105r14c6v4.3.jpg	 l	 1.792	 GoodTrial	 4.3	 bl
21	 5	 0	 x	 LineStimuli//4.3/stimNo125r0c0v4.3.jpg	 r	 2.616	 GoodTrial	 4.3	 bl
22	 5	 0	 x	 LineStimuli//4.3/stimNo146r0c0v4.3.jpg	 r	 1.860	 GoodTrial	 4.3	 bl
23	 5	 0	 x	 LineStimuli//4.3/stimNo153r0c0v4.3.jpg	 r	 2.231	 GoodTrial	 4.3	 bl
24	 5	 0	 x	 LineStimuli//4.3/stimNo135r0c0v4.3.jpg	 r	 2.480	 GoodTrial	 4.3	 bl
25	 5	 1	 right	 LineStimuli//4.3/stimNo116r5c13v4.3.jpg	 l	 1.471	 GoodTrial	 4.3	 bl
26	 5	 0	 x	 LineStimuli//4.3/stimNo149r0c0v4.3.jpg	 r	 1.718	 GoodTrial	 4.3	 bl
27	 5	 1	 right	 LineStimuli//4.3/stimNo118r11c13v4.3.jpg	 l	 1.859	 GoodTrial	 4.3	 bl
28	 5	 0	 x	 LineStimuli//4.3/stimNo122r0c0v4.3.jpg	 r	 2.089	 GoodTrial	 4.3	 bl
29	 5	 0	 x	 LineStimuli//4.3/stimNo142r0c0v4.3.jpg	 r	 2.278	 GoodTrial	 4.3	 bl
30	 5	 1	 left	 LineStimuli//4.3/stimNo101r5c5v4.3.jpg	 l	 1.534	 GoodTrial	 4.3	 bl
31	 5	 1	 left	 LineStimuli//4.3/stimNo85r3c5v4.3.jpg	 l	 1.568	 GoodTrial	 4.3	 bl
32	 5	 1	 left	 LineStimuli//4.3/stimNo88r10c3v4.3.jpg	 l	 1.636	 GoodTrial	 4.3	 bl
33	 5	 1	 left	 LineStimuli//4.3/stimNo100r8c3v4.3.jpg	 l	 1.592	 GoodTrial	 4.3	 bl
34	 5	 0	 x	 LineStimuli//4.3/stimNo134r0c0v4.3.jpg	 r	 2.232	 GoodTrial	 4.3	 bl
35	 5	 0	 x	 LineStimuli//4.3/stimNo152r0c0v4.3.jpg	 r	 1.868	 GoodTrial	 4.3	 bl
36	 5	 0	 x	 LineStimuli//4.3/stimNo157r0c0v4.3.jpg	 r	 1.728	 GoodTrial	 4.3	 bl
37	 5	 0	 x	 LineStimuli//4.3/stimNo156r0c0v4.3.jpg	 r	 1.634	 GoodTrial	 4.3	 bl
38	 5	 1	 left	 LineStimuli//4.3/stimNo90r10c4v4.3.jpg	 l	 1.549	 GoodTrial	 4.3	 bl
39	 5	 1	 right	 LineStimuli//4.3/stimNo92r2c20v4.3.jpg	 l	 1.599	 GoodTrial	 4.3	 bl
40	 5	 1	 right	 LineStimuli//4.3/stimNo84r15c20v4.3.jpg	 l	 1.616	 GoodTrial	 4.3	 bl
41	 5	 0	 x	 LineStimuli//4.3/stimNo123r0c0v4.3.jpg	 r	 1.936	 GoodTrial	 4.3	 bl
42	 5	 0	 x	 LineStimuli//4.3/stimNo139r0c0v4.3.jpg	 l	 2.036	 GoodTrial	 4.3	 bl
43	 5	 0	 x	 LineStimuli//4.3/stimNo144r0c0v4.3.jpg	 r	 2.504	 GoodTrial	 4.3	 bl
44	 5	 0	 x	 LineStimuli//4.3/stimNo145r0c0v4.3.jpg	 r	 2.010	 GoodTrial	 4.3	 bl
45	 5	 0	 x	 LineStimuli//4.3/stimNo126r0c0v4.3.jpg	 r	 1.873	 GoodTrial	 4.3	 bl
46	 5	 0	 x	 LineStimuli//4.3/stimNo148r0c0v4.3.jpg	 r	 2.366	 GoodTrial	 4.3	 bl
47	 5	 0	 x	 LineStimuli//4.3/stimNo151r0c0v4.3.jpg	 r	 1.424	 GoodTrial	 4.3	 bl
48	 5	 1	 left	 LineStimuli//4.3/stimNo103r10c4v4.3.jpg	 l	 1.973	 GoodTrial	 4.3	 bl
49	 5	 1	 right	 LineStimuli//4.3/stimNo99r14c18v4.3.jpg	 l	 1.729	 GoodTrial	 4.3	 bl
50	 5	 0	 x	 LineStimuli//4.3/stimNo136r0c0v4.3.jpg	 r	 2.209	 GoodTrial	 4.3	 bl
1	 6	 0	 x	 LineStimuli//3.8/stimNo137r0c0v3.8.jpg	 r	 4.663	 GoodTrial	 3.8	 bl
2	 6	 0	 x	 LineStimuli//3.8/stimNo134r0c0v3.8.jpg	 r	 3.058	 GoodTrial	 3.8	 bl
3	 6	 0	 x	 LineStimuli//3.8/stimNo128r0c0v3.8.jpg	 r	 2.592	 GoodTrial	 3.8	 bl
4	 6	 0	 x	 LineStimuli//3.8/stimNo147r0c0v3.8.jpg	 r	 1.933	 GoodTrial	 3.8	 bl
5	 6	 0	 x	 LineStimuli//3.8/stimNo151r0c0v3.8.jpg	 r	 2.599	 GoodTrial	 3.8	 bl
6	 6	 1	 left	 LineStimuli//3.8/stimNo89r10c7v3.8.jpg	 l	 2.213	 GoodTrial	 3.8	 bl
7	 6	 1	 right	 LineStimuli//3.8/stimNo117r6c17v3.8.jpg	 l	 1.687	 GoodTrial	 3.8	 bl
8	 6	 1	 left	 LineStimuli//3.8/stimNo93r8c2v3.8.jpg	 l	 1.595	 GoodTrial	 3.8	 bl
9	 6	 0	 x	 LineStimuli//3.8/stimNo136r0c0v3.8.jpg	 r	 2.597	 GoodTrial	 3.8	 bl
10	 6	 0	 x	 LineStimuli//3.8/stimNo141r0c0v3.8.jpg	 r	 3.281	 GoodTrial	 3.8	 bl
11	 6	 0	 x	 LineStimuli//3.8/stimNo144r0c0v3.8.jpg	 r	 1.782	 GoodTrial	 3.8	 bl
12	 6	 0	 x	 LineStimuli//3.8/stimNo148r0c0v3.8.jpg	 r	 2.149	 GoodTrial	 3.8	 bl
13	 6	 0	 x	 LineStimuli//3.8/stimNo133r0c0v3.8.jpg	 r	 2.203	 GoodTrial	 3.8	 bl
14	 6	 1	 left	 LineStimuli//3.8/stimNo113r14c9v3.8.jpg	 l	 1.997	 GoodTrial	 3.8	 bl
15	 6	 1	 right	 LineStimuli//3.8/stimNo88r10c17v3.8.jpg	 l	 1.765	 GoodTrial	 3.8	 bl
16	 6	 1	 right	 LineStimuli//3.8/stimNo102r10c17v3.8.jpg	 l	 1.528	 GoodTrial	 3.8	 bl
17	 6	 1	 right	 LineStimuli//3.8/stimNo92r6c21v3.8.jpg	 l	 1.508	 GoodTrial	 3.8	 bl
18	 6	 1	 right	 LineStimuli//3.8/stimNo114r10c14v3.8.jpg	 l	 1.791	 GoodTrial	 3.8	 bl
19	 6	 1	 left	 LineStimuli//3.8/stimNo110r7c9v3.8.jpg	 l	 1.661	 GoodTrial	 3.8	 bl
20	 6	 1	 right	 LineStimuli//3.8/stimNo107r9c18v3.8.jpg	 r	 1.503	 GoodTrial	 3.8	 bl
21	 6	 1	 left	 LineStimuli//3.8/stimNo98r2c9v3.8.jpg	 l	 1.705	 GoodTrial	 3.8	 bl
22	 6	 1	 left	 LineStimuli//3.8/stimNo86r7c7v3.8.jpg	 l	 1.553	 GoodTrial	 3.8	 bl
23	 6	 1	 right	 LineStimuli//3.8/stimNo82r9c21v3.8.jpg	 l	 1.543	 GoodTrial	 3.8	 bl
24	 6	 1	 right	 LineStimuli//3.8/stimNo90r8c17v3.8.jpg	 l	 1.463	 GoodTrial	 3.8	 bl
25	 6	 0	 x	 LineStimuli//3.8/stimNo154r0c0v3.8.jpg	 r	 2.094	 GoodTrial	 3.8	 bl
26	 6	 0	 x	 LineStimuli//3.8/stimNo150r0c0v3.8.jpg	 r	 2.261	 GoodTrial	 3.8	 bl
27	 6	 0	 x	 LineStimuli//3.8/stimNo132r0c0v3.8.jpg	 r	 1.521	 GoodTrial	 3.8	 bl
28	 6	 0	 x	 LineStimuli//3.8/stimNo152r0c0v3.8.jpg	 r	 1.373	 GoodTrial	 3.8	 bl
29	 6	 1	 left	 LineStimuli//3.8/stimNo115r14c10v3.8.jpg	 l	 1.821	 GoodTrial	 3.8	 bl
30	 6	 0	 x	 LineStimuli//3.8/stimNo123r0c0v3.8.jpg	 r	 1.759	 GoodTrial	 3.8	 bl
31	 6	 1	 right	 LineStimuli//3.8/stimNo101r12c17v3.8.jpg	 l	 1.631	 GoodTrial	 3.8	 bl
32	 6	 1	 right	 LineStimuli//3.8/stimNo94r6c17v3.8.jpg	 l	 1.841	 GoodTrial	 3.8	 bl
33	 6	 0	 x	 LineStimuli//3.8/stimNo125r0c0v3.8.jpg	 r	 1.756	 GoodTrial	 3.8	 bl
34	 6	 0	 x	 LineStimuli//3.8/stimNo155r0c0v3.8.jpg	 r	 2.004	 GoodTrial	 3.8	 bl
35	 6	 1	 left	 LineStimuli//3.8/stimNo119r9c8v3.8.jpg	 l	 1.507	 GoodTrial	 3.8	 bl
36	 6	 1	 right	 LineStimuli//3.8/stimNo84r9c19v3.8.jpg	 l	 1.846	 GoodTrial	 3.8	 bl
37	 6	 0	 x	 LineStimuli//3.8/stimNo127r0c0v3.8.jpg	 r	 1.927	 GoodTrial	 3.8	 bl
38	 6	 0	 x	 LineStimuli//3.8/stimNo143r0c0v3.8.jpg	 l	 1.332	 GoodTrial	 3.8	 bl
39	 6	 0	 x	 LineStimuli//3.8/stimNo122r0c0v3.8.jpg	 r	 2.732	 GoodTrial	 3.8	 bl
40	 6	 1	 left	 LineStimuli//3.8/stimNo83r9c9v3.8.jpg	 l	 1.753	 GoodTrial	 3.8	 bl
41	 6	 1	 right	 LineStimuli//3.8/stimNo111r15c20v3.8.jpg	 r	 1.791	 GoodTrial	 3.8	 bl
42	 6	 0	 x	 LineStimuli//3.8/stimNo159r0c0v3.8.jpg	 r	 3.241	 GoodTrial	 3.8	 bl
43	 6	 1	 right	 LineStimuli//3.8/stimNo99r2c13v3.8.jpg	 l	 2.008	 GoodTrial	 3.8	 bl
44	 6	 1	 right	 LineStimuli//3.8/stimNo95r5c21v3.8.jpg	 l	 1.703	 GoodTrial	 3.8	 bl
45	 6	 1	 left	 LineStimuli//3.8/stimNo100r13c6v3.8.jpg	 l	 1.700	 GoodTrial	 3.8	 bl
46	 6	 0	 x	 LineStimuli//3.8/stimNo126r0c0v3.8.jpg	 r	 2.356	 GoodTrial	 3.8	 bl
47	 6	 1	 left	 LineStimuli//3.8/stimNo120r5c3v3.8.jpg	 l	 1.704	 GoodTrial	 3.8	 bl
48	 6	 1	 right	 LineStimuli//3.8/stimNo112r12c16v3.8.jpg	 l	 1.591	 GoodTrial	 3.8	 bl
49	 6	 0	 x	 LineStimuli//3.8/stimNo142r0c0v3.8.jpg	 r	 2.024	 GoodTrial	 3.8	 bl
50	 6	 1	 left	 LineStimuli//3.8/stimNo106r9c9v3.8.jpg	 l	 1.628	 GoodTrial	 3.8	 bl
1	 7	 1	 right	 LineStimuli//2.8/stimNo90r13c21v2.8.jpg	 r	 2.752	 GoodTrial	 2.8	 bl
2	 7	 0	 x	 LineStimuli//2.8/stimNo155r0c0v2.8.jpg	 r	 10.028	 GoodTrial	 2.8	 bl
3	 7	 0	 x	 LineStimuli//2.8/stimNo145r0c0v2.8.jpg	 r	 5.184	 GoodTrial	 2.8	 bl
4	 7	 0	 x	 LineStimuli//2.8/stimNo154r0c0v2.8.jpg	 r	 4.883	 GoodTrial	 2.8	 bl
5	 7	 0	 x	 LineStimuli//2.8/stimNo129r0c0v2.8.jpg	 r	 3.880	 GoodTrial	 2.8	 bl
6	 7	 1	 right	 LineStimuli//2.8/stimNo117r11c17v2.8.jpg	 l	 2.759	 GoodTrial	 2.8	 bl
7	 7	 0	 x	 LineStimuli//2.8/stimNo156r0c0v2.8.jpg	 r	 1.960	 GoodTrial	 2.8	 bl
8	 7	 1	 right	 LineStimuli//2.8/stimNo118r5c16v2.8.jpg	 l	 1.624	 GoodTrial	 2.8	 bl
9	 7	 1	 right	 LineStimuli//2.8/stimNo93r9c20v2.8.jpg	 l	 1.741	 GoodTrial	 2.8	 bl
10	 7	 0	 x	 LineStimuli//2.8/stimNo136r0c0v2.8.jpg	 r	 2.862	 GoodTrial	 2.8	 bl
11	 7	 0	 x	 LineStimuli//2.8/stimNo133r0c0v2.8.jpg	 r	 3.416	 GoodTrial	 2.8	 bl
12	 7	 0	 x	 LineStimuli//2.8/stimNo160r0c0v2.8.jpg	 r	 1.563	 GoodTrial	 2.8	 bl
13	 7	 1	 right	 LineStimuli//2.8/stimNo92r14c21v2.8.jpg	 l	 1.862	 GoodTrial	 2.8	 bl
14	 7	 0	 x	 LineStimuli//2.8/stimNo147r0c0v2.8.jpg	 r	 3.092	 GoodTrial	 2.8	 bl
15	 7	 0	 x	 LineStimuli//2.8/stimNo144r0c0v2.8.jpg	 l	 1.922	 GoodTrial	 2.8	 bl
16	 7	 1	 right	 LineStimuli//2.8/stimNo109r6c18v2.8.jpg	 l	 1.759	 GoodTrial	 2.8	 bl
17	 7	 1	 left	 LineStimuli//2.8/stimNo88r15c3v2.8.jpg	 l	 2.305	 GoodTrial	 2.8	 bl
18	 7	 1	 right	 LineStimuli//2.8/stimNo114r8c19v2.8.jpg	 l	 1.692	 GoodTrial	 2.8	 bl
19	 7	 1	 left	 LineStimuli//2.8/stimNo97r11c4v2.8.jpg	 l	 2.331	 GoodTrial	 2.8	 bl
20	 7	 0	 x	 LineStimuli//2.8/stimNo148r0c0v2.8.jpg	 r	 2.712	 GoodTrial	 2.8	 bl
21	 7	 1	 left	 LineStimuli//2.8/stimNo119r8c5v2.8.jpg	 l	 1.373	 GoodTrial	 2.8	 bl
22	 7	 1	 left	 LineStimuli//2.8/stimNo113r9c5v2.8.jpg	 l	 1.632	 GoodTrial	 2.8	 bl
23	 7	 0	 x	 LineStimuli//2.8/stimNo151r0c0v2.8.jpg	 r	 1.873	 GoodTrial	 2.8	 bl
24	 7	 0	 x	 LineStimuli//2.8/stimNo132r0c0v2.8.jpg	 r	 2.068	 GoodTrial	 2.8	 bl
25	 7	 1	 right	 LineStimuli//2.8/stimNo115r9c14v2.8.jpg	 l	 1.790	 GoodTrial	 2.8	 bl
26	 7	 1	 right	 LineStimuli//2.8/stimNo111r9c15v2.8.jpg	 l	 1.695	 GoodTrial	 2.8	 bl
27	 7	 0	 x	 LineStimuli//2.8/stimNo130r0c0v2.8.jpg	 r	 2.193	 GoodTrial	 2.8	 bl
28	 7	 0	 x	 LineStimuli//2.8/stimNo138r0c0v2.8.jpg	 r	 2.105	 GoodTrial	 2.8	 bl
29	 7	 1	 left	 LineStimuli//2.8/stimNo86r15c6v2.8.jpg	 l	 2.200	 GoodTrial	 2.8	 bl
30	 7	 0	 x	 LineStimuli//2.8/stimNo153r0c0v2.8.jpg	 r	 2.153	 GoodTrial	 2.8	 bl
31	 7	 1	 left	 LineStimuli//2.8/stimNo83r12c4v2.8.jpg	 l	 1.631	 GoodTrial	 2.8	 bl
32	 7	 0	 x	 LineStimuli//2.8/stimNo137r0c0v2.8.jpg	 r	 1.886	 GoodTrial	 2.8	 bl
33	 7	 1	 left	 LineStimuli//2.8/stimNo105r5c4v2.8.jpg	 l	 1.541	 GoodTrial	 2.8	 bl
34	 7	 0	 x	 LineStimuli//2.8/stimNo124r0c0v2.8.jpg	 r	 1.513	 GoodTrial	 2.8	 bl
35	 7	 1	 left	 LineStimuli//2.8/stimNo87r11c8v2.8.jpg	 l	 1.744	 GoodTrial	 2.8	 bl
36	 7	 1	 left	 LineStimuli//2.8/stimNo84r3c9v2.8.jpg	 l	 1.615	 GoodTrial	 2.8	 bl
37	 7	 1	 left	 LineStimuli//2.8/stimNo91r2c3v2.8.jpg	 l	 1.827	 GoodTrial	 2.8	 bl
38	 7	 0	 x	 LineStimuli//2.8/stimNo126r0c0v2.8.jpg	 r	 2.103	 GoodTrial	 2.8	 bl
39	 7	 0	 x	 LineStimuli//2.8/stimNo135r0c0v2.8.jpg	 r	 2.017	 GoodTrial	 2.8	 bl
40	 7	 1	 left	 LineStimuli//2.8/stimNo94r13c7v2.8.jpg	 l	 1.785	 GoodTrial	 2.8	 bl
41	 7	 0	 x	 LineStimuli//2.8/stimNo121r0c0v2.8.jpg	 r	 2.251	 GoodTrial	 2.8	 bl
42	 7	 0	 x	 LineStimuli//2.8/stimNo150r0c0v2.8.jpg	 r	 2.507	 GoodTrial	 2.8	 bl
43	 7	 0	 x	 LineStimuli//2.8/stimNo158r0c0v2.8.jpg	 r	 1.787	 GoodTrial	 2.8	 bl
44	 7	 1	 right	 LineStimuli//2.8/stimNo81r8c14v2.8.jpg	 l	 1.751	 GoodTrial	 2.8	 bl
45	 7	 1	 right	 LineStimuli//2.8/stimNo103r3c19v2.8.jpg	 l	 1.761	 GoodTrial	 2.8	 bl
46	 7	 1	 right	 LineStimuli//2.8/stimNo99r9c18v2.8.jpg	 l	 1.739	 GoodTrial	 2.8	 bl
47	 7	 0	 x	 LineStimuli//2.8/stimNo142r0c0v2.8.jpg	 r	 1.519	 GoodTrial	 2.8	 bl
48	 7	 0	 x	 LineStimuli//2.8/stimNo141r0c0v2.8.jpg	 r	 1.785	 GoodTrial	 2.8	 bl
49	 7	 0	 x	 LineStimuli//2.8/stimNo139r0c0v2.8.jpg	 r	 2.339	 GoodTrial	 2.8	 bl
50	 7	 1	 left	 LineStimuli//2.8/stimNo116r4c7v2.8.jpg	 l	 1.603	 GoodTrial	 2.8	 bl
