Trial	Block	Target_pr	Target_side	Name	Key	RT	Message	Block_Type	Condition
1	 1	 1	 left	 LineStimuli//4.3/stimNo107r2c8v4.3.jpg	 r	 6.881	 GoodTrial	 4.3	 bl
2	 1	 1	 right	 LineStimuli//4.3/stimNo117r10c21v4.3.jpg	 l	 4.522	 GoodTrial	 4.3	 bl
3	 1	 1	 left	 LineStimuli//4.3/stimNo111r10c9v4.3.jpg	 l	 6.593	 GoodTrial	 4.3	 bl
4	 1	 1	 left	 LineStimuli//4.3/stimNo113r11c7v4.3.jpg	 l	 2.935	 GoodTrial	 4.3	 bl
5	 1	 0	 x	 LineStimuli//4.3/stimNo137r0c0v4.3.jpg	 r	 5.895	 GoodTrial	 4.3	 bl
6	 1	 0	 x	 LineStimuli//4.3/stimNo145r0c0v4.3.jpg	 r	 4.907	 GoodTrial	 4.3	 bl
7	 1	 1	 left	 LineStimuli//4.3/stimNo104r15c2v4.3.jpg	 l	 3.309	 GoodTrial	 4.3	 bl
8	 1	 0	 x	 LineStimuli//4.3/stimNo142r0c0v4.3.jpg	 r	 5.741	 GoodTrial	 4.3	 bl
9	 1	 0	 x	 LineStimuli//4.3/stimNo121r0c0v4.3.jpg	 r	 6.579	 GoodTrial	 4.3	 bl
10	 1	 1	 right	 LineStimuli//4.3/stimNo115r10c18v4.3.jpg	 l	 4.751	 GoodTrial	 4.3	 bl
11	 1	 0	 x	 LineStimuli//4.3/stimNo138r0c0v4.3.jpg	 r	 8.560	 GoodTrial	 4.3	 bl
12	 1	 0	 x	 LineStimuli//4.3/stimNo149r0c0v4.3.jpg	 r	 4.981	 GoodTrial	 4.3	 bl
13	 1	 0	 x	 LineStimuli//4.3/stimNo146r0c0v4.3.jpg	 r	 7.359	 GoodTrial	 4.3	 bl
14	 1	 0	 x	 LineStimuli//4.3/stimNo133r0c0v4.3.jpg	 r	 5.727	 GoodTrial	 4.3	 bl
15	 1	 0	 x	 LineStimuli//4.3/stimNo126r0c0v4.3.jpg	 r	 6.663	 GoodTrial	 4.3	 bl
16	 1	 0	 x	 LineStimuli//4.3/stimNo141r0c0v4.3.jpg	 r	 6.644	 GoodTrial	 4.3	 bl
17	 1	 1	 right	 LineStimuli//4.3/stimNo82r7c18v4.3.jpg	 l	 1.765	 GoodTrial	 4.3	 bl
18	 1	 1	 right	 LineStimuli//4.3/stimNo118r11c13v4.3.jpg	 l	 2.538	 GoodTrial	 4.3	 bl
19	 1	 1	 left	 LineStimuli//4.3/stimNo110r6c7v4.3.jpg	 l	 2.022	 GoodTrial	 4.3	 bl
20	 1	 1	 left	 LineStimuli//4.3/stimNo88r10c3v4.3.jpg	 l	 2.111	 GoodTrial	 4.3	 bl
21	 1	 1	 left	 LineStimuli//4.3/stimNo98r3c8v4.3.jpg	 l	 1.808	 GoodTrial	 4.3	 bl
22	 1	 1	 right	 LineStimuli//4.3/stimNo116r5c13v4.3.jpg	 l	 2.422	 GoodTrial	 4.3	 bl
23	 1	 1	 right	 LineStimuli//4.3/stimNo84r15c20v4.3.jpg	 l	 3.576	 GoodTrial	 4.3	 bl
24	 1	 1	 left	 LineStimuli//4.3/stimNo93r9c9v4.3.jpg	 l	 2.873	 GoodTrial	 4.3	 bl
25	 1	 1	 left	 LineStimuli//4.3/stimNo87r3c5v4.3.jpg	 l	 2.266	 GoodTrial	 4.3	 bl
26	 1	 1	 left	 LineStimuli//4.3/stimNo86r7c3v4.3.jpg	 l	 1.816	 GoodTrial	 4.3	 bl
27	 1	 1	 right	 LineStimuli//4.3/stimNo92r2c20v4.3.jpg	 l	 2.167	 GoodTrial	 4.3	 bl
28	 1	 1	 left	 LineStimuli//4.3/stimNo83r4c2v4.3.jpg	 l	 1.782	 GoodTrial	 4.3	 bl
29	 1	 1	 left	 LineStimuli//4.3/stimNo108r5c8v4.3.jpg	 l	 1.630	 GoodTrial	 4.3	 bl
30	 1	 0	 x	 LineStimuli//4.3/stimNo123r0c0v4.3.jpg	 r	 5.652	 GoodTrial	 4.3	 bl
31	 1	 1	 left	 LineStimuli//4.3/stimNo90r10c4v4.3.jpg	 l	 1.920	 GoodTrial	 4.3	 bl
32	 1	 1	 right	 LineStimuli//4.3/stimNo81r10c14v4.3.jpg	 l	 2.473	 GoodTrial	 4.3	 bl
33	 1	 0	 x	 LineStimuli//4.3/stimNo156r0c0v4.3.jpg	 r	 3.881	 GoodTrial	 4.3	 bl
34	 1	 0	 x	 LineStimuli//4.3/stimNo143r0c0v4.3.jpg	 r	 4.480	 GoodTrial	 4.3	 bl
35	 1	 0	 x	 LineStimuli//4.3/stimNo129r0c0v4.3.jpg	 r	 3.768	 GoodTrial	 4.3	 bl
36	 1	 0	 x	 LineStimuli//4.3/stimNo124r0c0v4.3.jpg	 r	 3.354	 GoodTrial	 4.3	 bl
37	 1	 0	 x	 LineStimuli//4.3/stimNo139r0c0v4.3.jpg	 r	 3.768	 GoodTrial	 4.3	 bl
38	 1	 0	 x	 LineStimuli//4.3/stimNo152r0c0v4.3.jpg	 r	 2.994	 GoodTrial	 4.3	 bl
39	 1	 0	 x	 LineStimuli//4.3/stimNo147r0c0v4.3.jpg	 r	 2.904	 GoodTrial	 4.3	 bl
40	 1	 1	 right	 LineStimuli//4.3/stimNo114r10c15v4.3.jpg	 l	 2.522	 GoodTrial	 4.3	 bl
41	 1	 1	 right	 LineStimuli//4.3/stimNo112r10c16v4.3.jpg	 l	 1.906	 GoodTrial	 4.3	 bl
42	 1	 0	 x	 LineStimuli//4.3/stimNo125r0c0v4.3.jpg	 r	 3.043	 GoodTrial	 4.3	 bl
43	 1	 0	 x	 LineStimuli//4.3/stimNo160r0c0v4.3.jpg	 l	 3.184	 GoodTrial	 4.3	 bl
44	 1	 1	 right	 LineStimuli//4.3/stimNo120r8c18v4.3.jpg	 l	 1.796	 GoodTrial	 4.3	 bl
45	 1	 0	 x	 LineStimuli//4.3/stimNo130r0c0v4.3.jpg	 r	 3.256	 GoodTrial	 4.3	 bl
46	 1	 0	 x	 LineStimuli//4.3/stimNo154r0c0v4.3.jpg	 r	 5.578	 GoodTrial	 4.3	 bl
47	 1	 0	 x	 LineStimuli//4.3/stimNo128r0c0v4.3.jpg	 r	 3.650	 GoodTrial	 4.3	 bl
48	 1	 0	 x	 LineStimuli//4.3/stimNo122r0c0v4.3.jpg	 r	 3.423	 GoodTrial	 4.3	 bl
49	 1	 1	 left	 LineStimuli//4.3/stimNo85r3c5v4.3.jpg	 l	 1.777	 GoodTrial	 4.3	 bl
50	 1	 1	 right	 LineStimuli//4.3/stimNo96r4c19v4.3.jpg	 l	 1.871	 GoodTrial	 4.3	 bl
1	 2	 1	 left	 LineStimuli//1.5/stimNo87r12c5v1.5.jpg	 l	 4.557	 GoodTrial	 1.5	 bl
2	 2	 0	 x	 LineStimuli//1.5/stimNo136r0c0v1.5.jpg	 r	 6.169	 GoodTrial	 1.5	 bl
3	 2	 0	 x	 LineStimuli//1.5/stimNo151r0c0v1.5.jpg	 r	 5.160	 GoodTrial	 1.5	 bl
4	 2	 1	 left	 LineStimuli//1.5/stimNo83r12c7v1.5.jpg	 l	 2.592	 GoodTrial	 1.5	 bl
5	 2	 0	 x	 LineStimuli//1.5/stimNo141r0c0v1.5.jpg	 r	 4.360	 GoodTrial	 1.5	 bl
6	 2	 0	 x	 LineStimuli//1.5/stimNo158r0c0v1.5.jpg	 r	 3.257	 GoodTrial	 1.5	 bl
7	 2	 0	 x	 LineStimuli//1.5/stimNo154r0c0v1.5.jpg	 r	 3.864	 GoodTrial	 1.5	 bl
8	 2	 1	 right	 LineStimuli//1.5/stimNo101r5c20v1.5.jpg	 l	 2.301	 GoodTrial	 1.5	 bl
9	 2	 0	 x	 LineStimuli//1.5/stimNo135r0c0v1.5.jpg	 r	 6.370	 GoodTrial	 1.5	 bl
10	 2	 0	 x	 LineStimuli//1.5/stimNo127r0c0v1.5.jpg	 r	 4.925	 GoodTrial	 1.5	 bl
11	 2	 1	 right	 LineStimuli//1.5/stimNo100r6c20v1.5.jpg	 r	 6.411	 GoodTrial	 1.5	 bl
12	 2	 1	 right	 LineStimuli//1.5/stimNo82r11c15v1.5.jpg	 l	 2.881	 GoodTrial	 1.5	 bl
13	 2	 0	 x	 LineStimuli//1.5/stimNo150r0c0v1.5.jpg	 l	 3.521	 GoodTrial	 1.5	 bl
14	 2	 1	 left	 LineStimuli//1.5/stimNo106r3c7v1.5.jpg	 l	 8.779	 GoodTrial	 1.5	 bl
15	 2	 1	 right	 LineStimuli//1.5/stimNo119r6c19v1.5.jpg	 r	 7.543	 GoodTrial	 1.5	 bl
16	 2	 0	 x	 LineStimuli//1.5/stimNo148r0c0v1.5.jpg	 l	 7.675	 GoodTrial	 1.5	 bl
17	 2	 1	 left	 LineStimuli//1.5/stimNo88r6c7v1.5.jpg	 r	 9.707	 GoodTrial	 1.5	 bl
18	 2	 1	 right	 LineStimuli//1.5/stimNo92r6c18v1.5.jpg	 r	 6.839	 GoodTrial	 1.5	 bl
19	 2	 1	 left	 LineStimuli//1.5/stimNo117r7c8v1.5.jpg	 l	 7.430	 GoodTrial	 1.5	 bl
20	 2	 0	 x	 LineStimuli//1.5/stimNo152r0c0v1.5.jpg	 l	 3.071	 GoodTrial	 1.5	 bl
21	 2	 0	 x	 LineStimuli//1.5/stimNo153r0c0v1.5.jpg	 r	 6.112	 GoodTrial	 1.5	 bl
22	 2	 0	 x	 LineStimuli//1.5/stimNo122r0c0v1.5.jpg	 r	 6.752	 GoodTrial	 1.5	 bl
23	 2	 1	 right	 LineStimuli//1.5/stimNo98r8c21v1.5.jpg	 r	 5.596	 GoodTrial	 1.5	 bl
24	 2	 1	 right	 LineStimuli//1.5/stimNo84r3c18v1.5.jpg	 l	 3.391	 GoodTrial	 1.5	 bl
25	 2	 0	 x	 LineStimuli//1.5/stimNo156r0c0v1.5.jpg	 r	 8.491	 GoodTrial	 1.5	 bl
26	 2	 0	 x	 LineStimuli//1.5/stimNo149r0c0v1.5.jpg	 r	 8.639	 GoodTrial	 1.5	 bl
27	 2	 1	 right	 LineStimuli//1.5/stimNo105r3c18v1.5.jpg	 l	 3.324	 GoodTrial	 1.5	 bl
28	 2	 1	 right	 LineStimuli//1.5/stimNo107r2c19v1.5.jpg	 l	 2.440	 GoodTrial	 1.5	 bl
29	 2	 1	 right	 LineStimuli//1.5/stimNo115r14c18v1.5.jpg	 l	 6.518	 GoodTrial	 1.5	 bl
30	 2	 1	 right	 LineStimuli//1.5/stimNo118r9c20v1.5.jpg	 l	 2.723	 GoodTrial	 1.5	 bl
31	 2	 0	 x	 LineStimuli//1.5/stimNo142r0c0v1.5.jpg	 l	 3.298	 GoodTrial	 1.5	 bl
32	 2	 0	 x	 LineStimuli//1.5/stimNo160r0c0v1.5.jpg	 l	 5.646	 GoodTrial	 1.5	 bl
33	 2	 1	 left	 LineStimuli//1.5/stimNo89r8c9v1.5.jpg	 l	 4.688	 GoodTrial	 1.5	 bl
34	 2	 1	 right	 LineStimuli//1.5/stimNo86r6c16v1.5.jpg	 l	 2.692	 GoodTrial	 1.5	 bl
35	 2	 1	 right	 LineStimuli//1.5/stimNo90r3c15v1.5.jpg	 r	 3.360	 GoodTrial	 1.5	 bl
36	 2	 1	 left	 LineStimuli//1.5/stimNo97r15c6v1.5.jpg	 l	 3.280	 GoodTrial	 1.5	 bl
37	 2	 1	 left	 LineStimuli//1.5/stimNo114r4c4v1.5.jpg	 l	 4.281	 GoodTrial	 1.5	 bl
38	 2	 0	 x	 LineStimuli//1.5/stimNo145r0c0v1.5.jpg	 l	 2.109	 GoodTrial	 1.5	 bl
39	 2	 1	 left	 LineStimuli//1.5/stimNo120r14c2v1.5.jpg	 l	 4.092	 GoodTrial	 1.5	 bl
40	 2	 0	 x	 LineStimuli//1.5/stimNo140r0c0v1.5.jpg	 l	 2.048	 GoodTrial	 1.5	 bl
41	 2	 1	 left	 LineStimuli//1.5/stimNo113r4c4v1.5.jpg	 r	 8.576	 GoodTrial	 1.5	 bl
42	 2	 0	 x	 LineStimuli//1.5/stimNo123r0c0v1.5.jpg	 l	 7.984	 GoodTrial	 1.5	 bl
43	 2	 1	 left	 LineStimuli//1.5/stimNo91r9c3v1.5.jpg	 r	 4.088	 GoodTrial	 1.5	 bl
44	 2	 1	 right	 LineStimuli//1.5/stimNo95r6c14v1.5.jpg	 l	 3.524	 GoodTrial	 1.5	 bl
45	 2	 1	 right	 LineStimuli//1.5/stimNo111r7c17v1.5.jpg	 r	 7.725	 GoodTrial	 1.5	 bl
46	 2	 1	 right	 LineStimuli//1.5/stimNo93r14c18v1.5.jpg	 l	 2.436	 GoodTrial	 1.5	 bl
47	 2	 0	 x	 LineStimuli//1.5/stimNo138r0c0v1.5.jpg	 l	 2.640	 GoodTrial	 1.5	 bl
48	 2	 0	 x	 LineStimuli//1.5/stimNo133r0c0v1.5.jpg	 l	 3.174	 GoodTrial	 1.5	 bl
49	 2	 0	 x	 LineStimuli//1.5/stimNo146r0c0v1.5.jpg	 l	 5.334	 GoodTrial	 1.5	 bl
50	 2	 1	 right	 LineStimuli//1.5/stimNo81r6c17v1.5.jpg	 l	 3.139	 GoodTrial	 1.5	 bl
1	 3	 0	 x	 LineStimuli//2.3/stimNo156r0c0v2.3.jpg	 l	 3.023	 GoodTrial	 2.3	 bl
2	 3	 0	 x	 LineStimuli//2.3/stimNo129r0c0v2.3.jpg	 r	 12.673	 GoodTrial	 2.3	 bl
3	 3	 1	 right	 LineStimuli//2.3/stimNo99r2c13v2.3.jpg	 r	 8.428	 GoodTrial	 2.3	 bl
4	 3	 1	 right	 LineStimuli//2.3/stimNo90r14c21v2.3.jpg	 r	 7.079	 GoodTrial	 2.3	 bl
5	 3	 0	 x	 LineStimuli//2.3/stimNo134r0c0v2.3.jpg	 l	 3.175	 GoodTrial	 2.3	 bl
6	 3	 0	 x	 LineStimuli//2.3/stimNo144r0c0v2.3.jpg	 x	 0.112	 EARLY_RESPONSE	 2.3	 bl
7	 3	 1	 left	 LineStimuli//2.3/stimNo97r3c3v2.3.jpg	 l	 6.541	 GoodTrial	 2.3	 bl
8	 3	 0	 x	 LineStimuli//2.3/stimNo155r0c0v2.3.jpg	 r	 7.431	 GoodTrial	 2.3	 bl
9	 3	 0	 x	 LineStimuli//2.3/stimNo138r0c0v2.3.jpg	 r	 6.866	 GoodTrial	 2.3	 bl
10	 3	 1	 right	 LineStimuli//2.3/stimNo91r11c20v2.3.jpg	 l	 3.529	 GoodTrial	 2.3	 bl
11	 3	 1	 right	 LineStimuli//2.3/stimNo101r8c14v2.3.jpg	 l	 2.447	 GoodTrial	 2.3	 bl
12	 3	 1	 left	 LineStimuli//2.3/stimNo119r3c2v2.3.jpg	 r	 4.761	 GoodTrial	 2.3	 bl
13	 3	 1	 right	 LineStimuli//2.3/stimNo109r2c17v2.3.jpg	 l	 5.704	 GoodTrial	 2.3	 bl
14	 3	 1	 left	 LineStimuli//2.3/stimNo112r3c2v2.3.jpg	 r	 9.953	 GoodTrial	 2.3	 bl
15	 3	 0	 x	 LineStimuli//2.3/stimNo135r0c0v2.3.jpg	 r	 8.619	 GoodTrial	 2.3	 bl
16	 3	 0	 x	 LineStimuli//2.3/stimNo128r0c0v2.3.jpg	 r	 3.680	 GoodTrial	 2.3	 bl
17	 3	 0	 x	 LineStimuli//2.3/stimNo143r0c0v2.3.jpg	 r	 5.193	 GoodTrial	 2.3	 bl
18	 3	 0	 x	 LineStimuli//2.3/stimNo137r0c0v2.3.jpg	 r	 5.348	 GoodTrial	 2.3	 bl
19	 3	 0	 x	 LineStimuli//2.3/stimNo148r0c0v2.3.jpg	 r	 4.632	 GoodTrial	 2.3	 bl
20	 3	 0	 x	 LineStimuli//2.3/stimNo158r0c0v2.3.jpg	 l	 3.912	 GoodTrial	 2.3	 bl
21	 3	 1	 right	 LineStimuli//2.3/stimNo98r12c21v2.3.jpg	 l	 2.533	 GoodTrial	 2.3	 bl
22	 3	 0	 x	 LineStimuli//2.3/stimNo154r0c0v2.3.jpg	 r	 4.636	 GoodTrial	 2.3	 bl
23	 3	 0	 x	 LineStimuli//2.3/stimNo130r0c0v2.3.jpg	 r	 10.099	 GoodTrial	 2.3	 bl
24	 3	 0	 x	 LineStimuli//2.3/stimNo140r0c0v2.3.jpg	 r	 4.674	 GoodTrial	 2.3	 bl
25	 3	 0	 x	 LineStimuli//2.3/stimNo139r0c0v2.3.jpg	 r	 7.818	 GoodTrial	 2.3	 bl
26	 3	 1	 right	 LineStimuli//2.3/stimNo107r11c15v2.3.jpg	 r	 7.670	 GoodTrial	 2.3	 bl
27	 3	 0	 x	 LineStimuli//2.3/stimNo157r0c0v2.3.jpg	 r	 4.150	 GoodTrial	 2.3	 bl
28	 3	 1	 left	 LineStimuli//2.3/stimNo114r7c8v2.3.jpg	 l	 3.132	 GoodTrial	 2.3	 bl
29	 3	 1	 left	 LineStimuli//2.3/stimNo116r2c2v2.3.jpg	 l	 2.212	 GoodTrial	 2.3	 bl
30	 3	 1	 right	 LineStimuli//2.3/stimNo89r8c21v2.3.jpg	 r	 3.097	 GoodTrial	 2.3	 bl
31	 3	 1	 right	 LineStimuli//2.3/stimNo111r11c21v2.3.jpg	 l	 2.569	 GoodTrial	 2.3	 bl
32	 3	 1	 left	 LineStimuli//2.3/stimNo117r11c8v2.3.jpg	 l	 3.285	 GoodTrial	 2.3	 bl
33	 3	 1	 left	 LineStimuli//2.3/stimNo115r7c3v2.3.jpg	 l	 2.072	 GoodTrial	 2.3	 bl
34	 3	 1	 left	 LineStimuli//2.3/stimNo108r15c6v2.3.jpg	 l	 2.984	 GoodTrial	 2.3	 bl
35	 3	 1	 left	 LineStimuli//2.3/stimNo88r15c2v2.3.jpg	 l	 1.911	 GoodTrial	 2.3	 bl
36	 3	 1	 right	 LineStimuli//2.3/stimNo102r6c18v2.3.jpg	 l	 2.958	 GoodTrial	 2.3	 bl
37	 3	 1	 left	 LineStimuli//2.3/stimNo82r12c4v2.3.jpg	 l	 2.335	 GoodTrial	 2.3	 bl
38	 3	 1	 right	 LineStimuli//2.3/stimNo120r4c17v2.3.jpg	 l	 3.089	 GoodTrial	 2.3	 bl
39	 3	 0	 x	 LineStimuli//2.3/stimNo159r0c0v2.3.jpg	 r	 2.698	 GoodTrial	 2.3	 bl
40	 3	 0	 x	 LineStimuli//2.3/stimNo122r0c0v2.3.jpg	 r	 3.231	 GoodTrial	 2.3	 bl
41	 3	 0	 x	 LineStimuli//2.3/stimNo160r0c0v2.3.jpg	 r	 5.341	 GoodTrial	 2.3	 bl
42	 3	 1	 right	 LineStimuli//2.3/stimNo110r15c19v2.3.jpg	 r	 7.254	 GoodTrial	 2.3	 bl
43	 3	 1	 left	 LineStimuli//2.3/stimNo94r8c9v2.3.jpg	 l	 2.111	 GoodTrial	 2.3	 bl
44	 3	 0	 x	 LineStimuli//2.3/stimNo145r0c0v2.3.jpg	 l	 7.250	 GoodTrial	 2.3	 bl
45	 3	 1	 left	 LineStimuli//2.3/stimNo86r8c9v2.3.jpg	 l	 4.183	 GoodTrial	 2.3	 bl
46	 3	 0	 x	 LineStimuli//2.3/stimNo127r0c0v2.3.jpg	 r	 4.696	 GoodTrial	 2.3	 bl
47	 3	 0	 x	 LineStimuli//2.3/stimNo124r0c0v2.3.jpg	 r	 3.869	 GoodTrial	 2.3	 bl
48	 3	 0	 x	 LineStimuli//2.3/stimNo149r0c0v2.3.jpg	 r	 3.675	 GoodTrial	 2.3	 bl
49	 3	 1	 right	 LineStimuli//2.3/stimNo105r14c14v2.3.jpg	 r	 5.011	 GoodTrial	 2.3	 bl
50	 3	 1	 right	 LineStimuli//2.3/stimNo85r4c15v2.3.jpg	 l	 2.455	 GoodTrial	 2.3	 bl
1	 4	 0	 x	 LineStimuli//1.8/stimNo125r0c0v1.8.jpg	 r	 8.075	 GoodTrial	 1.8	 bl
2	 4	 0	 x	 LineStimuli//1.8/stimNo126r0c0v1.8.jpg	 r	 4.710	 GoodTrial	 1.8	 bl
3	 4	 0	 x	 LineStimuli//1.8/stimNo121r0c0v1.8.jpg	 r	 4.831	 GoodTrial	 1.8	 bl
4	 4	 1	 left	 LineStimuli//1.8/stimNo98r15c5v1.8.jpg	 r	 6.685	 GoodTrial	 1.8	 bl
5	 4	 1	 right	 LineStimuli//1.8/stimNo114r8c13v1.8.jpg	 l	 2.914	 GoodTrial	 1.8	 bl
6	 4	 0	 x	 LineStimuli//1.8/stimNo150r0c0v1.8.jpg	 l	 5.428	 GoodTrial	 1.8	 bl
7	 4	 0	 x	 LineStimuli//1.8/stimNo159r0c0v1.8.jpg	 r	 8.384	 GoodTrial	 1.8	 bl
8	 4	 1	 right	 LineStimuli//1.8/stimNo118r11c15v1.8.jpg	 r	 6.165	 GoodTrial	 1.8	 bl
9	 4	 1	 right	 LineStimuli//1.8/stimNo101r4c13v1.8.jpg	 r	 7.337	 GoodTrial	 1.8	 bl
10	 4	 1	 left	 LineStimuli//1.8/stimNo89r11c6v1.8.jpg	 r	 8.616	 GoodTrial	 1.8	 bl
11	 4	 0	 x	 LineStimuli//1.8/stimNo160r0c0v1.8.jpg	 r	 5.557	 GoodTrial	 1.8	 bl
12	 4	 1	 right	 LineStimuli//1.8/stimNo108r9c21v1.8.jpg	 r	 7.138	 GoodTrial	 1.8	 bl
13	 4	 1	 left	 LineStimuli//1.8/stimNo103r15c10v1.8.jpg	 r	 6.618	 GoodTrial	 1.8	 bl
14	 4	 1	 left	 LineStimuli//1.8/stimNo88r15c9v1.8.jpg	 l	 4.716	 GoodTrial	 1.8	 bl
15	 4	 1	 right	 LineStimuli//1.8/stimNo104r3c21v1.8.jpg	 r	 4.848	 GoodTrial	 1.8	 bl
16	 4	 0	 x	 LineStimuli//1.8/stimNo127r0c0v1.8.jpg	 r	 5.630	 GoodTrial	 1.8	 bl
17	 4	 0	 x	 LineStimuli//1.8/stimNo155r0c0v1.8.jpg	 r	 7.122	 GoodTrial	 1.8	 bl
18	 4	 0	 x	 LineStimuli//1.8/stimNo154r0c0v1.8.jpg	 r	 4.767	 GoodTrial	 1.8	 bl
19	 4	 0	 x	 LineStimuli//1.8/stimNo131r0c0v1.8.jpg	 r	 4.209	 GoodTrial	 1.8	 bl
20	 4	 0	 x	 LineStimuli//1.8/stimNo135r0c0v1.8.jpg	 r	 6.666	 GoodTrial	 1.8	 bl
21	 4	 0	 x	 LineStimuli//1.8/stimNo140r0c0v1.8.jpg	 r	 6.063	 GoodTrial	 1.8	 bl
22	 4	 1	 right	 LineStimuli//1.8/stimNo93r3c17v1.8.jpg	 l	 6.864	 GoodTrial	 1.8	 bl
23	 4	 1	 left	 LineStimuli//1.8/stimNo107r5c4v1.8.jpg	 l	 6.249	 GoodTrial	 1.8	 bl
24	 4	 0	 x	 LineStimuli//1.8/stimNo134r0c0v1.8.jpg	 r	 5.809	 GoodTrial	 1.8	 bl
25	 4	 0	 x	 LineStimuli//1.8/stimNo144r0c0v1.8.jpg	 r	 3.330	 GoodTrial	 1.8	 bl
26	 4	 1	 left	 LineStimuli//1.8/stimNo106r13c9v1.8.jpg	 l	 2.827	 GoodTrial	 1.8	 bl
27	 4	 0	 x	 LineStimuli//1.8/stimNo139r0c0v1.8.jpg	 r	 4.036	 GoodTrial	 1.8	 bl
28	 4	 0	 x	 LineStimuli//1.8/stimNo142r0c0v1.8.jpg	 r	 3.776	 GoodTrial	 1.8	 bl
29	 4	 0	 x	 LineStimuli//1.8/stimNo141r0c0v1.8.jpg	 r	 4.221	 GoodTrial	 1.8	 bl
30	 4	 1	 left	 LineStimuli//1.8/stimNo110r4c7v1.8.jpg	 r	 3.977	 GoodTrial	 1.8	 bl
31	 4	 0	 x	 LineStimuli//1.8/stimNo152r0c0v1.8.jpg	 r	 5.041	 GoodTrial	 1.8	 bl
32	 4	 1	 left	 LineStimuli//1.8/stimNo120r14c9v1.8.jpg	 l	 6.035	 GoodTrial	 1.8	 bl
33	 4	 1	 right	 LineStimuli//1.8/stimNo111r4c21v1.8.jpg	 r	 4.555	 GoodTrial	 1.8	 bl
34	 4	 0	 x	 LineStimuli//1.8/stimNo153r0c0v1.8.jpg	 r	 5.361	 GoodTrial	 1.8	 bl
35	 4	 0	 x	 LineStimuli//1.8/stimNo158r0c0v1.8.jpg	 r	 5.895	 GoodTrial	 1.8	 bl
36	 4	 1	 left	 LineStimuli//1.8/stimNo113r6c7v1.8.jpg	 l	 6.190	 GoodTrial	 1.8	 bl
37	 4	 1	 left	 LineStimuli//1.8/stimNo81r6c8v1.8.jpg	 l	 2.217	 GoodTrial	 1.8	 bl
38	 4	 0	 x	 LineStimuli//1.8/stimNo151r0c0v1.8.jpg	 r	 3.681	 GoodTrial	 1.8	 bl
39	 4	 0	 x	 LineStimuli//1.8/stimNo145r0c0v1.8.jpg	 r	 4.977	 GoodTrial	 1.8	 bl
40	 4	 1	 right	 LineStimuli//1.8/stimNo92r10c18v1.8.jpg	 r	 6.445	 GoodTrial	 1.8	 bl
41	 4	 1	 right	 LineStimuli//1.8/stimNo82r7c18v1.8.jpg	 l	 2.653	 GoodTrial	 1.8	 bl
42	 4	 0	 x	 LineStimuli//1.8/stimNo128r0c0v1.8.jpg	 l	 5.485	 GoodTrial	 1.8	 bl
43	 4	 1	 left	 LineStimuli//1.8/stimNo105r6c5v1.8.jpg	 r	 5.867	 GoodTrial	 1.8	 bl
44	 4	 1	 left	 LineStimuli//1.8/stimNo87r14c2v1.8.jpg	 l	 6.231	 GoodTrial	 1.8	 bl
45	 4	 0	 x	 LineStimuli//1.8/stimNo129r0c0v1.8.jpg	 r	 4.980	 GoodTrial	 1.8	 bl
46	 4	 0	 x	 LineStimuli//1.8/stimNo132r0c0v1.8.jpg	 l	 3.471	 GoodTrial	 1.8	 bl
47	 4	 1	 right	 LineStimuli//1.8/stimNo109r7c17v1.8.jpg	 l	 6.723	 GoodTrial	 1.8	 bl
48	 4	 1	 right	 LineStimuli//1.8/stimNo84r11c21v1.8.jpg	 r	 7.594	 GoodTrial	 1.8	 bl
49	 4	 1	 right	 LineStimuli//1.8/stimNo97r15c18v1.8.jpg	 l	 2.650	 GoodTrial	 1.8	 bl
50	 4	 0	 x	 LineStimuli//1.8/stimNo123r0c0v1.8.jpg	 r	 5.864	 GoodTrial	 1.8	 bl
1	 5	 1	 left	 LineStimuli//2.8/stimNo88r15c3v2.8.jpg	 l	 2.172	 GoodTrial	 2.8	 bl
2	 5	 0	 x	 LineStimuli//2.8/stimNo126r0c0v2.8.jpg	 r	 3.567	 GoodTrial	 2.8	 bl
3	 5	 1	 right	 LineStimuli//2.8/stimNo109r6c18v2.8.jpg	 l	 3.000	 GoodTrial	 2.8	 bl
4	 5	 0	 x	 LineStimuli//2.8/stimNo127r0c0v2.8.jpg	 r	 2.802	 GoodTrial	 2.8	 bl
5	 5	 0	 x	 LineStimuli//2.8/stimNo149r0c0v2.8.jpg	 r	 3.176	 GoodTrial	 2.8	 bl
6	 5	 1	 right	 LineStimuli//2.8/stimNo103r3c19v2.8.jpg	 l	 1.916	 GoodTrial	 2.8	 bl
7	 5	 0	 x	 LineStimuli//2.8/stimNo132r0c0v2.8.jpg	 r	 2.868	 GoodTrial	 2.8	 bl
8	 5	 1	 right	 LineStimuli//2.8/stimNo101r12c16v2.8.jpg	 r	 3.353	 GoodTrial	 2.8	 bl
9	 5	 0	 x	 LineStimuli//2.8/stimNo139r0c0v2.8.jpg	 r	 4.640	 GoodTrial	 2.8	 bl
10	 5	 0	 x	 LineStimuli//2.8/stimNo129r0c0v2.8.jpg	 r	 4.160	 GoodTrial	 2.8	 bl
11	 5	 1	 left	 LineStimuli//2.8/stimNo89r12c4v2.8.jpg	 l	 1.754	 GoodTrial	 2.8	 bl
12	 5	 1	 left	 LineStimuli//2.8/stimNo104r8c6v2.8.jpg	 l	 2.028	 GoodTrial	 2.8	 bl
13	 5	 1	 left	 LineStimuli//2.8/stimNo91r2c3v2.8.jpg	 l	 3.436	 GoodTrial	 2.8	 bl
14	 5	 0	 x	 LineStimuli//2.8/stimNo135r0c0v2.8.jpg	 r	 3.754	 GoodTrial	 2.8	 bl
15	 5	 1	 right	 LineStimuli//2.8/stimNo90r13c21v2.8.jpg	 l	 2.986	 GoodTrial	 2.8	 bl
16	 5	 1	 left	 LineStimuli//2.8/stimNo105r5c4v2.8.jpg	 l	 2.448	 GoodTrial	 2.8	 bl
17	 5	 0	 x	 LineStimuli//2.8/stimNo121r0c0v2.8.jpg	 r	 2.687	 GoodTrial	 2.8	 bl
18	 5	 0	 x	 LineStimuli//2.8/stimNo134r0c0v2.8.jpg	 r	 5.039	 GoodTrial	 2.8	 bl
19	 5	 0	 x	 LineStimuli//2.8/stimNo136r0c0v2.8.jpg	 r	 2.134	 GoodTrial	 2.8	 bl
20	 5	 0	 x	 LineStimuli//2.8/stimNo125r0c0v2.8.jpg	 r	 2.904	 GoodTrial	 2.8	 bl
21	 5	 0	 x	 LineStimuli//2.8/stimNo138r0c0v2.8.jpg	 r	 2.928	 GoodTrial	 2.8	 bl
22	 5	 1	 left	 LineStimuli//2.8/stimNo82r4c6v2.8.jpg	 l	 1.640	 GoodTrial	 2.8	 bl
23	 5	 0	 x	 LineStimuli//2.8/stimNo124r0c0v2.8.jpg	 r	 3.152	 GoodTrial	 2.8	 bl
24	 5	 1	 right	 LineStimuli//2.8/stimNo110r7c14v2.8.jpg	 l	 2.152	 GoodTrial	 2.8	 bl
25	 5	 0	 x	 LineStimuli//2.8/stimNo152r0c0v2.8.jpg	 r	 3.252	 GoodTrial	 2.8	 bl
26	 5	 0	 x	 LineStimuli//2.8/stimNo141r0c0v2.8.jpg	 r	 2.580	 GoodTrial	 2.8	 bl
27	 5	 1	 left	 LineStimuli//2.8/stimNo96r6c9v2.8.jpg	 l	 1.832	 GoodTrial	 2.8	 bl
28	 5	 0	 x	 LineStimuli//2.8/stimNo160r0c0v2.8.jpg	 r	 2.816	 GoodTrial	 2.8	 bl
29	 5	 1	 left	 LineStimuli//2.8/stimNo102r3c2v2.8.jpg	 l	 2.054	 GoodTrial	 2.8	 bl
30	 5	 1	 left	 LineStimuli//2.8/stimNo107r5c6v2.8.jpg	 l	 2.280	 GoodTrial	 2.8	 bl
31	 5	 1	 right	 LineStimuli//2.8/stimNo85r4c15v2.8.jpg	 l	 1.681	 GoodTrial	 2.8	 bl
32	 5	 0	 x	 LineStimuli//2.8/stimNo156r0c0v2.8.jpg	 r	 6.631	 GoodTrial	 2.8	 bl
33	 5	 1	 left	 LineStimuli//2.8/stimNo87r11c8v2.8.jpg	 l	 2.842	 GoodTrial	 2.8	 bl
34	 5	 0	 x	 LineStimuli//2.8/stimNo146r0c0v2.8.jpg	 r	 2.361	 GoodTrial	 2.8	 bl
35	 5	 1	 left	 LineStimuli//2.8/stimNo113r9c5v2.8.jpg	 l	 1.507	 GoodTrial	 2.8	 bl
36	 5	 0	 x	 LineStimuli//2.8/stimNo153r0c0v2.8.jpg	 r	 4.252	 GoodTrial	 2.8	 bl
37	 5	 1	 right	 LineStimuli//2.8/stimNo120r8c20v2.8.jpg	 l	 1.577	 GoodTrial	 2.8	 bl
38	 5	 0	 x	 LineStimuli//2.8/stimNo150r0c0v2.8.jpg	 r	 5.945	 GoodTrial	 2.8	 bl
39	 5	 1	 left	 LineStimuli//2.8/stimNo94r13c7v2.8.jpg	 l	 2.066	 GoodTrial	 2.8	 bl
40	 5	 1	 right	 LineStimuli//2.8/stimNo93r9c20v2.8.jpg	 r	 3.145	 GoodTrial	 2.8	 bl
41	 5	 1	 right	 LineStimuli//2.8/stimNo100r8c13v2.8.jpg	 l	 4.033	 GoodTrial	 2.8	 bl
42	 5	 0	 x	 LineStimuli//2.8/stimNo137r0c0v2.8.jpg	 r	 3.572	 GoodTrial	 2.8	 bl
43	 5	 1	 right	 LineStimuli//2.8/stimNo114r8c19v2.8.jpg	 l	 1.653	 GoodTrial	 2.8	 bl
44	 5	 0	 x	 LineStimuli//2.8/stimNo142r0c0v2.8.jpg	 r	 3.061	 GoodTrial	 2.8	 bl
45	 5	 1	 right	 LineStimuli//2.8/stimNo112r13c17v2.8.jpg	 l	 1.941	 GoodTrial	 2.8	 bl
46	 5	 1	 left	 LineStimuli//2.8/stimNo97r11c4v2.8.jpg	 l	 3.441	 GoodTrial	 2.8	 bl
47	 5	 0	 x	 LineStimuli//2.8/stimNo151r0c0v2.8.jpg	 r	 3.391	 GoodTrial	 2.8	 bl
48	 5	 1	 left	 LineStimuli//2.8/stimNo119r8c5v2.8.jpg	 l	 1.619	 GoodTrial	 2.8	 bl
49	 5	 0	 x	 LineStimuli//2.8/stimNo140r0c0v2.8.jpg	 r	 4.385	 GoodTrial	 2.8	 bl
50	 5	 0	 x	 LineStimuli//2.8/stimNo145r0c0v2.8.jpg	 x	 0.432	 EARLY_RESPONSE	 2.8	 bl
1	 6	 1	 left	 LineStimuli//3.8/stimNo120r5c3v3.8.jpg	 l	 1.887	 GoodTrial	 3.8	 bl
2	 6	 0	 x	 LineStimuli//3.8/stimNo127r0c0v3.8.jpg	 r	 2.884	 GoodTrial	 3.8	 bl
3	 6	 1	 right	 LineStimuli//3.8/stimNo92r6c21v3.8.jpg	 l	 1.657	 GoodTrial	 3.8	 bl
4	 6	 1	 right	 LineStimuli//3.8/stimNo114r10c14v3.8.jpg	 l	 2.682	 GoodTrial	 3.8	 bl
5	 6	 0	 x	 LineStimuli//3.8/stimNo133r0c0v3.8.jpg	 r	 2.404	 GoodTrial	 3.8	 bl
6	 6	 1	 left	 LineStimuli//3.8/stimNo86r7c7v3.8.jpg	 l	 1.614	 GoodTrial	 3.8	 bl
7	 6	 1	 right	 LineStimuli//3.8/stimNo85r3c13v3.8.jpg	 l	 1.871	 GoodTrial	 3.8	 bl
8	 6	 1	 right	 LineStimuli//3.8/stimNo101r12c17v3.8.jpg	 r	 2.180	 GoodTrial	 3.8	 bl
9	 6	 0	 x	 LineStimuli//3.8/stimNo129r0c0v3.8.jpg	 r	 2.368	 GoodTrial	 3.8	 bl
10	 6	 0	 x	 LineStimuli//3.8/stimNo147r0c0v3.8.jpg	 r	 2.877	 GoodTrial	 3.8	 bl
11	 6	 1	 right	 LineStimuli//3.8/stimNo84r9c19v3.8.jpg	 l	 1.577	 GoodTrial	 3.8	 bl
12	 6	 0	 x	 LineStimuli//3.8/stimNo126r0c0v3.8.jpg	 r	 2.062	 GoodTrial	 3.8	 bl
13	 6	 0	 x	 LineStimuli//3.8/stimNo137r0c0v3.8.jpg	 r	 2.154	 GoodTrial	 3.8	 bl
14	 6	 0	 x	 LineStimuli//3.8/stimNo157r0c0v3.8.jpg	 r	 3.562	 GoodTrial	 3.8	 bl
15	 6	 0	 x	 LineStimuli//3.8/stimNo141r0c0v3.8.jpg	 r	 3.401	 GoodTrial	 3.8	 bl
16	 6	 1	 right	 LineStimuli//3.8/stimNo107r9c18v3.8.jpg	 l	 2.144	 GoodTrial	 3.8	 bl
17	 6	 0	 x	 LineStimuli//3.8/stimNo155r0c0v3.8.jpg	 r	 4.524	 GoodTrial	 3.8	 bl
18	 6	 0	 x	 LineStimuli//3.8/stimNo149r0c0v3.8.jpg	 r	 6.074	 GoodTrial	 3.8	 bl
19	 6	 1	 left	 LineStimuli//3.8/stimNo89r10c7v3.8.jpg	 l	 1.638	 GoodTrial	 3.8	 bl
20	 6	 1	 left	 LineStimuli//3.8/stimNo97r15c9v3.8.jpg	 l	 1.934	 GoodTrial	 3.8	 bl
21	 6	 0	 x	 LineStimuli//3.8/stimNo132r0c0v3.8.jpg	 r	 3.424	 GoodTrial	 3.8	 bl
22	 6	 1	 left	 LineStimuli//3.8/stimNo118r4c8v3.8.jpg	 l	 1.650	 GoodTrial	 3.8	 bl
23	 6	 1	 left	 LineStimuli//3.8/stimNo110r7c9v3.8.jpg	 l	 1.636	 GoodTrial	 3.8	 bl
24	 6	 0	 x	 LineStimuli//3.8/stimNo135r0c0v3.8.jpg	 r	 4.248	 GoodTrial	 3.8	 bl
25	 6	 0	 x	 LineStimuli//3.8/stimNo151r0c0v3.8.jpg	 r	 3.202	 GoodTrial	 3.8	 bl
26	 6	 0	 x	 LineStimuli//3.8/stimNo143r0c0v3.8.jpg	 r	 2.886	 GoodTrial	 3.8	 bl
27	 6	 0	 x	 LineStimuli//3.8/stimNo152r0c0v3.8.jpg	 l	 3.560	 GoodTrial	 3.8	 bl
28	 6	 1	 right	 LineStimuli//3.8/stimNo111r15c20v3.8.jpg	 l	 1.904	 GoodTrial	 3.8	 bl
29	 6	 1	 right	 LineStimuli//3.8/stimNo87r6c13v3.8.jpg	 l	 1.818	 GoodTrial	 3.8	 bl
30	 6	 1	 right	 LineStimuli//3.8/stimNo102r10c17v3.8.jpg	 l	 1.508	 GoodTrial	 3.8	 bl
31	 6	 0	 x	 LineStimuli//3.8/stimNo124r0c0v3.8.jpg	 r	 3.090	 GoodTrial	 3.8	 bl
32	 6	 1	 right	 LineStimuli//3.8/stimNo112r12c16v3.8.jpg	 l	 1.670	 GoodTrial	 3.8	 bl
33	 6	 1	 left	 LineStimuli//3.8/stimNo106r9c9v3.8.jpg	 l	 1.765	 GoodTrial	 3.8	 bl
34	 6	 1	 left	 LineStimuli//3.8/stimNo113r14c9v3.8.jpg	 l	 1.662	 GoodTrial	 3.8	 bl
35	 6	 1	 right	 LineStimuli//3.8/stimNo94r6c17v3.8.jpg	 l	 1.745	 GoodTrial	 3.8	 bl
36	 6	 0	 x	 LineStimuli//3.8/stimNo128r0c0v3.8.jpg	 r	 2.359	 GoodTrial	 3.8	 bl
37	 6	 1	 right	 LineStimuli//3.8/stimNo91r10c16v3.8.jpg	 l	 1.634	 GoodTrial	 3.8	 bl
38	 6	 0	 x	 LineStimuli//3.8/stimNo148r0c0v3.8.jpg	 r	 1.850	 GoodTrial	 3.8	 bl
39	 6	 1	 right	 LineStimuli//3.8/stimNo90r8c17v3.8.jpg	 l	 2.366	 GoodTrial	 3.8	 bl
40	 6	 1	 left	 LineStimuli//3.8/stimNo103r11c7v3.8.jpg	 l	 2.049	 GoodTrial	 3.8	 bl
41	 6	 1	 left	 LineStimuli//3.8/stimNo105r2c6v3.8.jpg	 l	 2.008	 GoodTrial	 3.8	 bl
42	 6	 0	 x	 LineStimuli//3.8/stimNo123r0c0v3.8.jpg	 r	 2.869	 GoodTrial	 3.8	 bl
43	 6	 1	 left	 LineStimuli//3.8/stimNo115r14c10v3.8.jpg	 l	 1.872	 GoodTrial	 3.8	 bl
44	 6	 1	 left	 LineStimuli//3.8/stimNo98r2c9v3.8.jpg	 l	 2.084	 GoodTrial	 3.8	 bl
45	 6	 0	 x	 LineStimuli//3.8/stimNo125r0c0v3.8.jpg	 r	 2.763	 GoodTrial	 3.8	 bl
46	 6	 0	 x	 LineStimuli//3.8/stimNo154r0c0v3.8.jpg	 r	 3.266	 GoodTrial	 3.8	 bl
47	 6	 0	 x	 LineStimuli//3.8/stimNo146r0c0v3.8.jpg	 r	 1.992	 GoodTrial	 3.8	 bl
48	 6	 1	 left	 LineStimuli//3.8/stimNo109r11c8v3.8.jpg	 l	 1.622	 GoodTrial	 3.8	 bl
49	 6	 0	 x	 LineStimuli//3.8/stimNo140r0c0v3.8.jpg	 r	 2.287	 GoodTrial	 3.8	 bl
50	 6	 0	 x	 LineStimuli//3.8/stimNo142r0c0v3.8.jpg	 r	 2.401	 GoodTrial	 3.8	 bl
1	 7	 1	 right	 LineStimuli//3.3/stimNo107r2c17v3.3.jpg	 l	 2.165	 GoodTrial	 3.3	 bl
2	 7	 0	 x	 LineStimuli//3.3/stimNo141r0c0v3.3.jpg	 r	 3.066	 GoodTrial	 3.3	 bl
3	 7	 1	 right	 LineStimuli//3.3/stimNo105r7c20v3.3.jpg	 l	 1.661	 GoodTrial	 3.3	 bl
4	 7	 0	 x	 LineStimuli//3.3/stimNo131r0c0v3.3.jpg	 r	 2.337	 GoodTrial	 3.3	 bl
5	 7	 0	 x	 LineStimuli//3.3/stimNo126r0c0v3.3.jpg	 r	 2.771	 GoodTrial	 3.3	 bl
6	 7	 1	 right	 LineStimuli//3.3/stimNo88r9c14v3.3.jpg	 l	 2.369	 GoodTrial	 3.3	 bl
7	 7	 1	 right	 LineStimuli//3.3/stimNo114r11c21v3.3.jpg	 l	 1.699	 GoodTrial	 3.3	 bl
8	 7	 0	 x	 LineStimuli//3.3/stimNo124r0c0v3.3.jpg	 r	 2.423	 GoodTrial	 3.3	 bl
9	 7	 1	 left	 LineStimuli//3.3/stimNo95r15c8v3.3.jpg	 l	 2.485	 GoodTrial	 3.3	 bl
10	 7	 0	 x	 LineStimuli//3.3/stimNo123r0c0v3.3.jpg	 r	 2.701	 GoodTrial	 3.3	 bl
11	 7	 0	 x	 LineStimuli//3.3/stimNo155r0c0v3.3.jpg	 r	 2.755	 GoodTrial	 3.3	 bl
12	 7	 0	 x	 LineStimuli//3.3/stimNo150r0c0v3.3.jpg	 r	 2.538	 GoodTrial	 3.3	 bl
13	 7	 0	 x	 LineStimuli//3.3/stimNo127r0c0v3.3.jpg	 r	 1.797	 GoodTrial	 3.3	 bl
14	 7	 0	 x	 LineStimuli//3.3/stimNo156r0c0v3.3.jpg	 r	 2.283	 GoodTrial	 3.3	 bl
15	 7	 0	 x	 LineStimuli//3.3/stimNo121r0c0v3.3.jpg	 r	 2.479	 GoodTrial	 3.3	 bl
16	 7	 0	 x	 LineStimuli//3.3/stimNo148r0c0v3.3.jpg	 r	 1.975	 GoodTrial	 3.3	 bl
17	 7	 0	 x	 LineStimuli//3.3/stimNo129r0c0v3.3.jpg	 r	 2.833	 GoodTrial	 3.3	 bl
18	 7	 1	 right	 LineStimuli//3.3/stimNo87r15c13v3.3.jpg	 l	 1.900	 GoodTrial	 3.3	 bl
19	 7	 0	 x	 LineStimuli//3.3/stimNo135r0c0v3.3.jpg	 r	 2.297	 GoodTrial	 3.3	 bl
20	 7	 0	 x	 LineStimuli//3.3/stimNo138r0c0v3.3.jpg	 r	 2.379	 GoodTrial	 3.3	 bl
21	 7	 0	 x	 LineStimuli//3.3/stimNo143r0c0v3.3.jpg	 r	 3.050	 GoodTrial	 3.3	 bl
22	 7	 0	 x	 LineStimuli//3.3/stimNo147r0c0v3.3.jpg	 r	 3.283	 GoodTrial	 3.3	 bl
23	 7	 0	 x	 LineStimuli//3.3/stimNo154r0c0v3.3.jpg	 r	 3.277	 GoodTrial	 3.3	 bl
24	 7	 1	 left	 LineStimuli//3.3/stimNo83r8c3v3.3.jpg	 l	 1.655	 GoodTrial	 3.3	 bl
25	 7	 0	 x	 LineStimuli//3.3/stimNo128r0c0v3.3.jpg	 r	 4.432	 GoodTrial	 3.3	 bl
26	 7	 0	 x	 LineStimuli//3.3/stimNo136r0c0v3.3.jpg	 r	 3.336	 GoodTrial	 3.3	 bl
27	 7	 1	 left	 LineStimuli//3.3/stimNo90r2c9v3.3.jpg	 l	 2.063	 GoodTrial	 3.3	 bl
28	 7	 1	 right	 LineStimuli//3.3/stimNo113r13c15v3.3.jpg	 l	 2.176	 GoodTrial	 3.3	 bl
29	 7	 0	 x	 LineStimuli//3.3/stimNo144r0c0v3.3.jpg	 r	 3.095	 GoodTrial	 3.3	 bl
30	 7	 1	 left	 LineStimuli//3.3/stimNo103r6c6v3.3.jpg	 l	 1.626	 GoodTrial	 3.3	 bl
31	 7	 1	 right	 LineStimuli//3.3/stimNo102r13c13v3.3.jpg	 l	 2.090	 GoodTrial	 3.3	 bl
32	 7	 0	 x	 LineStimuli//3.3/stimNo152r0c0v3.3.jpg	 r	 3.404	 GoodTrial	 3.3	 bl
33	 7	 0	 x	 LineStimuli//3.3/stimNo130r0c0v3.3.jpg	 r	 4.000	 GoodTrial	 3.3	 bl
34	 7	 1	 right	 LineStimuli//3.3/stimNo112r5c15v3.3.jpg	 l	 1.686	 GoodTrial	 3.3	 bl
35	 7	 1	 right	 LineStimuli//3.3/stimNo101r7c16v3.3.jpg	 l	 1.583	 GoodTrial	 3.3	 bl
36	 7	 1	 right	 LineStimuli//3.3/stimNo91r12c16v3.3.jpg	 l	 1.864	 GoodTrial	 3.3	 bl
37	 7	 1	 right	 LineStimuli//3.3/stimNo89r5c21v3.3.jpg	 l	 2.140	 GoodTrial	 3.3	 bl
38	 7	 0	 x	 LineStimuli//3.3/stimNo133r0c0v3.3.jpg	 r	 2.680	 GoodTrial	 3.3	 bl
39	 7	 0	 x	 LineStimuli//3.3/stimNo134r0c0v3.3.jpg	 r	 2.568	 GoodTrial	 3.3	 bl
40	 7	 0	 x	 LineStimuli//3.3/stimNo151r0c0v3.3.jpg	 r	 3.906	 GoodTrial	 3.3	 bl
41	 7	 1	 left	 LineStimuli//3.3/stimNo94r14c9v3.3.jpg	 l	 1.648	 GoodTrial	 3.3	 bl
42	 7	 1	 left	 LineStimuli//3.3/stimNo93r3c5v3.3.jpg	 l	 1.680	 GoodTrial	 3.3	 bl
43	 7	 0	 x	 LineStimuli//3.3/stimNo140r0c0v3.3.jpg	 r	 2.438	 GoodTrial	 3.3	 bl
44	 7	 1	 right	 LineStimuli//3.3/stimNo118r3c16v3.3.jpg	 l	 2.258	 GoodTrial	 3.3	 bl
45	 7	 1	 left	 LineStimuli//3.3/stimNo119r15c7v3.3.jpg	 l	 1.584	 GoodTrial	 3.3	 bl
46	 7	 0	 x	 LineStimuli//3.3/stimNo153r0c0v3.3.jpg	 r	 2.178	 GoodTrial	 3.3	 bl
47	 7	 0	 x	 LineStimuli//3.3/stimNo158r0c0v3.3.jpg	 r	 2.914	 GoodTrial	 3.3	 bl
48	 7	 0	 x	 LineStimuli//3.3/stimNo122r0c0v3.3.jpg	 r	 3.798	 GoodTrial	 3.3	 bl
49	 7	 1	 left	 LineStimuli//3.3/stimNo100r3c3v3.3.jpg	 l	 1.600	 GoodTrial	 3.3	 bl
50	 7	 1	 left	 LineStimuli//3.3/stimNo106r9c9v3.3.jpg	 l	 2.114	 GoodTrial	 3.3	 bl
