Trial	Block	Target_pr	Target_side	Name	Key	RT	Message	Block_Type	Condition
1	 1	 1	 right	 LineStimuli//2.3/stimNo118r4c17v2.3.jpg	 l	 2.472	 GoodTrial	 2.3	 bl
2	 1	 0	 x	 LineStimuli//2.3/stimNo122r0c0v2.3.jpg	 r	 4.049	 GoodTrial	 2.3	 bl
3	 1	 1	 left	 LineStimuli//2.3/stimNo88r15c2v2.3.jpg	 l	 1.694	 GoodTrial	 2.3	 bl
4	 1	 1	 left	 LineStimuli//2.3/stimNo83r14c4v2.3.jpg	 l	 1.935	 GoodTrial	 2.3	 bl
5	 1	 1	 left	 LineStimuli//2.3/stimNo96r3c3v2.3.jpg	 r	 2.020	 GoodTrial	 2.3	 bl
6	 1	 1	 left	 LineStimuli//2.3/stimNo115r7c3v2.3.jpg	 l	 1.942	 GoodTrial	 2.3	 bl
7	 1	 1	 right	 LineStimuli//2.3/stimNo90r14c21v2.3.jpg	 l	 1.837	 GoodTrial	 2.3	 bl
8	 1	 1	 left	 LineStimuli//2.3/stimNo86r8c9v2.3.jpg	 l	 1.480	 GoodTrial	 2.3	 bl
9	 1	 1	 right	 LineStimuli//2.3/stimNo93r4c16v2.3.jpg	 l	 1.470	 GoodTrial	 2.3	 bl
10	 1	 0	 x	 LineStimuli//2.3/stimNo145r0c0v2.3.jpg	 r	 2.798	 GoodTrial	 2.3	 bl
11	 1	 1	 right	 LineStimuli//2.3/stimNo98r12c21v2.3.jpg	 l	 1.589	 GoodTrial	 2.3	 bl
12	 1	 1	 left	 LineStimuli//2.3/stimNo94r8c9v2.3.jpg	 l	 1.606	 GoodTrial	 2.3	 bl
13	 1	 1	 right	 LineStimuli//2.3/stimNo99r2c13v2.3.jpg	 l	 1.751	 GoodTrial	 2.3	 bl
14	 1	 1	 left	 LineStimuli//2.3/stimNo97r3c3v2.3.jpg	 l	 1.464	 GoodTrial	 2.3	 bl
15	 1	 0	 x	 LineStimuli//2.3/stimNo131r0c0v2.3.jpg	 l	 1.412	 GoodTrial	 2.3	 bl
16	 1	 0	 x	 LineStimuli//2.3/stimNo128r0c0v2.3.jpg	 l	 3.698	 GoodTrial	 2.3	 bl
17	 1	 1	 right	 LineStimuli//2.3/stimNo103r11c21v2.3.jpg	 l	 5.753	 GoodTrial	 2.3	 bl
18	 1	 0	 x	 LineStimuli//2.3/stimNo133r0c0v2.3.jpg	 r	 3.410	 GoodTrial	 2.3	 bl
19	 1	 1	 right	 LineStimuli//2.3/stimNo107r11c15v2.3.jpg	 l	 10.392	 GoodTrial	 2.3	 bl
20	 1	 0	 x	 LineStimuli//2.3/stimNo148r0c0v2.3.jpg	 r	 2.198	 GoodTrial	 2.3	 bl
21	 1	 0	 x	 LineStimuli//2.3/stimNo138r0c0v2.3.jpg	 r	 2.856	 GoodTrial	 2.3	 bl
22	 1	 1	 right	 LineStimuli//2.3/stimNo91r11c20v2.3.jpg	 l	 1.572	 GoodTrial	 2.3	 bl
23	 1	 1	 left	 LineStimuli//2.3/stimNo82r12c4v2.3.jpg	 l	 1.596	 GoodTrial	 2.3	 bl
24	 1	 0	 x	 LineStimuli//2.3/stimNo127r0c0v2.3.jpg	 r	 2.342	 GoodTrial	 2.3	 bl
25	 1	 0	 x	 LineStimuli//2.3/stimNo154r0c0v2.3.jpg	 r	 2.128	 GoodTrial	 2.3	 bl
26	 1	 0	 x	 LineStimuli//2.3/stimNo139r0c0v2.3.jpg	 r	 1.893	 GoodTrial	 2.3	 bl
27	 1	 1	 right	 LineStimuli//2.3/stimNo102r6c18v2.3.jpg	 l	 1.496	 GoodTrial	 2.3	 bl
28	 1	 0	 x	 LineStimuli//2.3/stimNo124r0c0v2.3.jpg	 r	 1.760	 GoodTrial	 2.3	 bl
29	 1	 0	 x	 LineStimuli//2.3/stimNo150r0c0v2.3.jpg	 r	 2.075	 GoodTrial	 2.3	 bl
30	 1	 0	 x	 LineStimuli//2.3/stimNo155r0c0v2.3.jpg	 r	 2.004	 GoodTrial	 2.3	 bl
31	 1	 0	 x	 LineStimuli//2.3/stimNo156r0c0v2.3.jpg	 r	 1.962	 GoodTrial	 2.3	 bl
32	 1	 1	 right	 LineStimuli//2.3/stimNo110r15c19v2.3.jpg	 l	 1.568	 GoodTrial	 2.3	 bl
33	 1	 1	 left	 LineStimuli//2.3/stimNo114r7c8v2.3.jpg	 l	 1.647	 GoodTrial	 2.3	 bl
34	 1	 1	 right	 LineStimuli//2.3/stimNo111r11c21v2.3.jpg	 l	 2.656	 GoodTrial	 2.3	 bl
35	 1	 0	 x	 LineStimuli//2.3/stimNo126r0c0v2.3.jpg	 r	 4.013	 GoodTrial	 2.3	 bl
36	 1	 1	 right	 LineStimuli//2.3/stimNo109r2c17v2.3.jpg	 l	 1.769	 GoodTrial	 2.3	 bl
37	 1	 1	 left	 LineStimuli//2.3/stimNo106r9c9v2.3.jpg	 l	 2.203	 GoodTrial	 2.3	 bl
38	 1	 0	 x	 LineStimuli//2.3/stimNo159r0c0v2.3.jpg	 r	 2.194	 GoodTrial	 2.3	 bl
39	 1	 0	 x	 LineStimuli//2.3/stimNo147r0c0v2.3.jpg	 r	 1.759	 GoodTrial	 2.3	 bl
40	 1	 0	 x	 LineStimuli//2.3/stimNo157r0c0v2.3.jpg	 r	 1.872	 GoodTrial	 2.3	 bl
41	 1	 0	 x	 LineStimuli//2.3/stimNo141r0c0v2.3.jpg	 r	 1.673	 GoodTrial	 2.3	 bl
42	 1	 1	 right	 LineStimuli//2.3/stimNo101r8c14v2.3.jpg	 l	 1.605	 GoodTrial	 2.3	 bl
43	 1	 1	 left	 LineStimuli//2.3/stimNo117r11c8v2.3.jpg	 l	 1.683	 GoodTrial	 2.3	 bl
44	 1	 1	 right	 LineStimuli//2.3/stimNo92r10c17v2.3.jpg	 l	 1.439	 GoodTrial	 2.3	 bl
45	 1	 1	 left	 LineStimuli//2.3/stimNo119r3c2v2.3.jpg	 l	 1.623	 GoodTrial	 2.3	 bl
46	 1	 0	 x	 LineStimuli//2.3/stimNo130r0c0v2.3.jpg	 l	 3.854	 GoodTrial	 2.3	 bl
47	 1	 0	 x	 LineStimuli//2.3/stimNo152r0c0v2.3.jpg	 r	 2.020	 GoodTrial	 2.3	 bl
48	 1	 0	 x	 LineStimuli//2.3/stimNo123r0c0v2.3.jpg	 r	 4.531	 GoodTrial	 2.3	 bl
49	 1	 0	 x	 LineStimuli//2.3/stimNo136r0c0v2.3.jpg	 r	 2.716	 GoodTrial	 2.3	 bl
50	 1	 1	 left	 LineStimuli//2.3/stimNo112r3c2v2.3.jpg	 l	 1.690	 GoodTrial	 2.3	 bl
1	 2	 1	 left	 LineStimuli//1.5/stimNo120r14c2v1.5.jpg	 l	 1.675	 GoodTrial	 1.5	 bl
2	 2	 1	 right	 LineStimuli//1.5/stimNo93r14c18v1.5.jpg	 l	 1.609	 GoodTrial	 1.5	 bl
3	 2	 1	 left	 LineStimuli//1.5/stimNo114r4c4v1.5.jpg	 l	 1.484	 GoodTrial	 1.5	 bl
4	 2	 0	 x	 LineStimuli//1.5/stimNo148r0c0v1.5.jpg	 r	 3.084	 GoodTrial	 1.5	 bl
5	 2	 1	 right	 LineStimuli//1.5/stimNo115r14c18v1.5.jpg	 l	 1.845	 GoodTrial	 1.5	 bl
6	 2	 1	 right	 LineStimuli//1.5/stimNo92r6c18v1.5.jpg	 l	 2.913	 GoodTrial	 1.5	 bl
7	 2	 0	 x	 LineStimuli//1.5/stimNo137r0c0v1.5.jpg	 r	 3.227	 GoodTrial	 1.5	 bl
8	 2	 1	 right	 LineStimuli//1.5/stimNo108r13c15v1.5.jpg	 l	 1.922	 GoodTrial	 1.5	 bl
9	 2	 1	 right	 LineStimuli//1.5/stimNo95r6c14v1.5.jpg	 l	 2.447	 GoodTrial	 1.5	 bl
10	 2	 0	 x	 LineStimuli//1.5/stimNo128r0c0v1.5.jpg	 r	 5.363	 GoodTrial	 1.5	 bl
11	 2	 1	 left	 LineStimuli//1.5/stimNo110r7c3v1.5.jpg	 l	 1.520	 GoodTrial	 1.5	 bl
12	 2	 1	 right	 LineStimuli//1.5/stimNo119r6c19v1.5.jpg	 l	 2.558	 GoodTrial	 1.5	 bl
13	 2	 1	 right	 LineStimuli//1.5/stimNo103r13c17v1.5.jpg	 r	 3.261	 GoodTrial	 1.5	 bl
14	 2	 0	 x	 LineStimuli//1.5/stimNo125r0c0v1.5.jpg	 l	 1.657	 GoodTrial	 1.5	 bl
15	 2	 1	 left	 LineStimuli//1.5/stimNo83r12c7v1.5.jpg	 x	 0.400	 EARLY_RESPONSE	 1.5	 bl
16	 2	 0	 x	 LineStimuli//1.5/stimNo155r0c0v1.5.jpg	 r	 2.774	 GoodTrial	 1.5	 bl
17	 2	 0	 x	 LineStimuli//1.5/stimNo144r0c0v1.5.jpg	 r	 2.630	 GoodTrial	 1.5	 bl
18	 2	 0	 x	 LineStimuli//1.5/stimNo139r0c0v1.5.jpg	 r	 1.882	 GoodTrial	 1.5	 bl
19	 2	 1	 right	 LineStimuli//1.5/stimNo90r3c15v1.5.jpg	 l	 1.324	 GoodTrial	 1.5	 bl
20	 2	 1	 right	 LineStimuli//1.5/stimNo81r6c17v1.5.jpg	 l	 10.168	 GoodTrial	 1.5	 bl
21	 2	 1	 right	 LineStimuli//1.5/stimNo101r5c20v1.5.jpg	 l	 2.972	 GoodTrial	 1.5	 bl
22	 2	 1	 right	 LineStimuli//1.5/stimNo111r7c17v1.5.jpg	 l	 3.248	 GoodTrial	 1.5	 bl
23	 2	 1	 left	 LineStimuli//1.5/stimNo94r10c6v1.5.jpg	 r	 9.906	 GoodTrial	 1.5	 bl
24	 2	 1	 left	 LineStimuli//1.5/stimNo113r4c4v1.5.jpg	 l	 1.852	 GoodTrial	 1.5	 bl
25	 2	 0	 x	 LineStimuli//1.5/stimNo154r0c0v1.5.jpg	 r	 1.966	 GoodTrial	 1.5	 bl
26	 2	 1	 right	 LineStimuli//1.5/stimNo118r9c20v1.5.jpg	 l	 6.816	 GoodTrial	 1.5	 bl
27	 2	 0	 x	 LineStimuli//1.5/stimNo135r0c0v1.5.jpg	 r	 1.960	 GoodTrial	 1.5	 bl
28	 2	 1	 right	 LineStimuli//1.5/stimNo104r5c18v1.5.jpg	 l	 1.780	 GoodTrial	 1.5	 bl
29	 2	 0	 x	 LineStimuli//1.5/stimNo160r0c0v1.5.jpg	 r	 3.340	 GoodTrial	 1.5	 bl
30	 2	 0	 x	 LineStimuli//1.5/stimNo142r0c0v1.5.jpg	 r	 2.862	 GoodTrial	 1.5	 bl
31	 2	 1	 left	 LineStimuli//1.5/stimNo87r12c5v1.5.jpg	 l	 1.655	 GoodTrial	 1.5	 bl
32	 2	 1	 left	 LineStimuli//1.5/stimNo117r7c8v1.5.jpg	 l	 1.659	 GoodTrial	 1.5	 bl
33	 2	 0	 x	 LineStimuli//1.5/stimNo143r0c0v1.5.jpg	 r	 2.368	 GoodTrial	 1.5	 bl
34	 2	 0	 x	 LineStimuli//1.5/stimNo122r0c0v1.5.jpg	 r	 3.888	 GoodTrial	 1.5	 bl
35	 2	 0	 x	 LineStimuli//1.5/stimNo124r0c0v1.5.jpg	 r	 2.495	 GoodTrial	 1.5	 bl
36	 2	 0	 x	 LineStimuli//1.5/stimNo138r0c0v1.5.jpg	 r	 3.446	 GoodTrial	 1.5	 bl
37	 2	 1	 left	 LineStimuli//1.5/stimNo85r2c5v1.5.jpg	 r	 2.483	 GoodTrial	 1.5	 bl
38	 2	 0	 x	 LineStimuli//1.5/stimNo123r0c0v1.5.jpg	 x	 0.648	 EARLY_RESPONSE	 1.5	 bl
39	 2	 0	 x	 LineStimuli//1.5/stimNo130r0c0v1.5.jpg	 r	 2.025	 GoodTrial	 1.5	 bl
40	 2	 1	 right	 LineStimuli//1.5/stimNo105r3c18v1.5.jpg	 l	 3.534	 GoodTrial	 1.5	 bl
41	 2	 0	 x	 LineStimuli//1.5/stimNo146r0c0v1.5.jpg	 r	 2.919	 GoodTrial	 1.5	 bl
42	 2	 0	 x	 LineStimuli//1.5/stimNo134r0c0v1.5.jpg	 r	 3.203	 GoodTrial	 1.5	 bl
43	 2	 1	 right	 LineStimuli//1.5/stimNo100r6c20v1.5.jpg	 l	 2.456	 GoodTrial	 1.5	 bl
44	 2	 0	 x	 LineStimuli//1.5/stimNo145r0c0v1.5.jpg	 r	 2.569	 GoodTrial	 1.5	 bl
45	 2	 1	 right	 LineStimuli//1.5/stimNo86r6c16v1.5.jpg	 l	 1.615	 GoodTrial	 1.5	 bl
46	 2	 0	 x	 LineStimuli//1.5/stimNo147r0c0v1.5.jpg	 r	 4.416	 GoodTrial	 1.5	 bl
47	 2	 1	 left	 LineStimuli//1.5/stimNo97r15c6v1.5.jpg	 l	 1.475	 GoodTrial	 1.5	 bl
48	 2	 1	 right	 LineStimuli//1.5/stimNo82r11c15v1.5.jpg	 r	 5.073	 GoodTrial	 1.5	 bl
49	 2	 1	 left	 LineStimuli//1.5/stimNo112r9c5v1.5.jpg	 r	 2.681	 GoodTrial	 1.5	 bl
50	 2	 0	 x	 LineStimuli//1.5/stimNo141r0c0v1.5.jpg	 r	 2.583	 GoodTrial	 1.5	 bl
1	 3	 0	 x	 LineStimuli//1.8/stimNo129r0c0v1.8.jpg	 r	 1.992	 GoodTrial	 1.8	 bl
2	 3	 1	 right	 LineStimuli//1.8/stimNo118r11c15v1.8.jpg	 l	 1.514	 GoodTrial	 1.8	 bl
3	 3	 1	 left	 LineStimuli//1.8/stimNo103r15c10v1.8.jpg	 l	 2.348	 GoodTrial	 1.8	 bl
4	 3	 0	 x	 LineStimuli//1.8/stimNo154r0c0v1.8.jpg	 r	 2.998	 GoodTrial	 1.8	 bl
5	 3	 0	 x	 LineStimuli//1.8/stimNo124r0c0v1.8.jpg	 r	 2.300	 GoodTrial	 1.8	 bl
6	 3	 0	 x	 LineStimuli//1.8/stimNo145r0c0v1.8.jpg	 r	 3.629	 GoodTrial	 1.8	 bl
7	 3	 1	 right	 LineStimuli//1.8/stimNo90r15c13v1.8.jpg	 r	 2.324	 GoodTrial	 1.8	 bl
8	 3	 1	 left	 LineStimuli//1.8/stimNo115r5c9v1.8.jpg	 l	 1.728	 GoodTrial	 1.8	 bl
9	 3	 0	 x	 LineStimuli//1.8/stimNo126r0c0v1.8.jpg	 r	 4.340	 GoodTrial	 1.8	 bl
10	 3	 0	 x	 LineStimuli//1.8/stimNo157r0c0v1.8.jpg	 r	 1.964	 GoodTrial	 1.8	 bl
11	 3	 0	 x	 LineStimuli//1.8/stimNo136r0c0v1.8.jpg	 r	 2.638	 GoodTrial	 1.8	 bl
12	 3	 0	 x	 LineStimuli//1.8/stimNo135r0c0v1.8.jpg	 r	 2.054	 GoodTrial	 1.8	 bl
13	 3	 0	 x	 LineStimuli//1.8/stimNo133r0c0v1.8.jpg	 r	 1.750	 GoodTrial	 1.8	 bl
14	 3	 1	 right	 LineStimuli//1.8/stimNo83r6c13v1.8.jpg	 l	 1.576	 GoodTrial	 1.8	 bl
15	 3	 1	 right	 LineStimuli//1.8/stimNo101r4c13v1.8.jpg	 l	 1.768	 GoodTrial	 1.8	 bl
16	 3	 1	 left	 LineStimuli//1.8/stimNo87r14c2v1.8.jpg	 l	 1.660	 GoodTrial	 1.8	 bl
17	 3	 0	 x	 LineStimuli//1.8/stimNo143r0c0v1.8.jpg	 r	 1.800	 GoodTrial	 1.8	 bl
18	 3	 1	 right	 LineStimuli//1.8/stimNo104r3c21v1.8.jpg	 l	 2.070	 GoodTrial	 1.8	 bl
19	 3	 1	 left	 LineStimuli//1.8/stimNo81r6c8v1.8.jpg	 r	 1.772	 GoodTrial	 1.8	 bl
20	 3	 1	 left	 LineStimuli//1.8/stimNo89r11c6v1.8.jpg	 l	 1.248	 GoodTrial	 1.8	 bl
21	 3	 1	 right	 LineStimuli//1.8/stimNo117r10c16v1.8.jpg	 l	 1.288	 GoodTrial	 1.8	 bl
22	 3	 0	 x	 LineStimuli//1.8/stimNo153r0c0v1.8.jpg	 l	 1.332	 GoodTrial	 1.8	 bl
23	 3	 1	 left	 LineStimuli//1.8/stimNo91r14c4v1.8.jpg	 l	 1.474	 GoodTrial	 1.8	 bl
24	 3	 1	 left	 LineStimuli//1.8/stimNo85r13c2v1.8.jpg	 l	 1.440	 GoodTrial	 1.8	 bl
25	 3	 0	 x	 LineStimuli//1.8/stimNo158r0c0v1.8.jpg	 r	 2.516	 GoodTrial	 1.8	 bl
26	 3	 1	 right	 LineStimuli//1.8/stimNo102r14c17v1.8.jpg	 l	 1.532	 GoodTrial	 1.8	 bl
27	 3	 0	 x	 LineStimuli//1.8/stimNo122r0c0v1.8.jpg	 r	 2.276	 GoodTrial	 1.8	 bl
28	 3	 0	 x	 LineStimuli//1.8/stimNo141r0c0v1.8.jpg	 r	 2.720	 GoodTrial	 1.8	 bl
29	 3	 1	 right	 LineStimuli//1.8/stimNo100r9c13v1.8.jpg	 l	 1.817	 GoodTrial	 1.8	 bl
30	 3	 0	 x	 LineStimuli//1.8/stimNo151r0c0v1.8.jpg	 r	 2.089	 GoodTrial	 1.8	 bl
31	 3	 1	 right	 LineStimuli//1.8/stimNo111r4c21v1.8.jpg	 l	 1.680	 GoodTrial	 1.8	 bl
32	 3	 1	 right	 LineStimuli//1.8/stimNo84r11c21v1.8.jpg	 r	 2.398	 GoodTrial	 1.8	 bl
33	 3	 1	 right	 LineStimuli//1.8/stimNo92r10c18v1.8.jpg	 l	 1.456	 GoodTrial	 1.8	 bl
34	 3	 0	 x	 LineStimuli//1.8/stimNo148r0c0v1.8.jpg	 l	 1.242	 GoodTrial	 1.8	 bl
35	 3	 1	 right	 LineStimuli//1.8/stimNo93r3c17v1.8.jpg	 r	 0.976	 EARLY_RESPONSE	 1.8	 bl
36	 3	 0	 x	 LineStimuli//1.8/stimNo134r0c0v1.8.jpg	 r	 4.561	 GoodTrial	 1.8	 bl
37	 3	 1	 left	 LineStimuli//1.8/stimNo110r4c7v1.8.jpg	 l	 1.601	 GoodTrial	 1.8	 bl
38	 3	 1	 left	 LineStimuli//1.8/stimNo105r6c5v1.8.jpg	 l	 1.601	 GoodTrial	 1.8	 bl
39	 3	 0	 x	 LineStimuli//1.8/stimNo128r0c0v1.8.jpg	 r	 3.063	 GoodTrial	 1.8	 bl
40	 3	 0	 x	 LineStimuli//1.8/stimNo123r0c0v1.8.jpg	 r	 2.149	 GoodTrial	 1.8	 bl
41	 3	 1	 left	 LineStimuli//1.8/stimNo120r14c9v1.8.jpg	 l	 1.873	 GoodTrial	 1.8	 bl
42	 3	 0	 x	 LineStimuli//1.8/stimNo139r0c0v1.8.jpg	 r	 2.599	 GoodTrial	 1.8	 bl
43	 3	 1	 right	 LineStimuli//1.8/stimNo82r7c18v1.8.jpg	 l	 1.849	 GoodTrial	 1.8	 bl
44	 3	 0	 x	 LineStimuli//1.8/stimNo160r0c0v1.8.jpg	 r	 2.203	 GoodTrial	 1.8	 bl
45	 3	 1	 right	 LineStimuli//1.8/stimNo108r9c21v1.8.jpg	 l	 1.679	 GoodTrial	 1.8	 bl
46	 3	 0	 x	 LineStimuli//1.8/stimNo152r0c0v1.8.jpg	 r	 2.228	 GoodTrial	 1.8	 bl
47	 3	 0	 x	 LineStimuli//1.8/stimNo125r0c0v1.8.jpg	 r	 1.955	 GoodTrial	 1.8	 bl
48	 3	 1	 right	 LineStimuli//1.8/stimNo97r15c18v1.8.jpg	 l	 1.965	 GoodTrial	 1.8	 bl
49	 3	 1	 left	 LineStimuli//1.8/stimNo88r15c9v1.8.jpg	 l	 3.848	 GoodTrial	 1.8	 bl
50	 3	 0	 x	 LineStimuli//1.8/stimNo131r0c0v1.8.jpg	 r	 3.184	 GoodTrial	 1.8	 bl
1	 4	 0	 x	 LineStimuli//3.8/stimNo151r0c0v3.8.jpg	 x	 0.880	 EARLY_RESPONSE	 3.8	 bl
2	 4	 1	 left	 LineStimuli//3.8/stimNo119r9c8v3.8.jpg	 l	 1.502	 GoodTrial	 3.8	 bl
3	 4	 0	 x	 LineStimuli//3.8/stimNo147r0c0v3.8.jpg	 r	 2.400	 GoodTrial	 3.8	 bl
4	 4	 1	 left	 LineStimuli//3.8/stimNo120r5c3v3.8.jpg	 l	 1.816	 GoodTrial	 3.8	 bl
5	 4	 0	 x	 LineStimuli//3.8/stimNo138r0c0v3.8.jpg	 r	 2.107	 GoodTrial	 3.8	 bl
6	 4	 0	 x	 LineStimuli//3.8/stimNo135r0c0v3.8.jpg	 r	 1.961	 GoodTrial	 3.8	 bl
7	 4	 1	 left	 LineStimuli//3.8/stimNo116r7c3v3.8.jpg	 l	 1.894	 GoodTrial	 3.8	 bl
8	 4	 1	 right	 LineStimuli//3.8/stimNo112r12c16v3.8.jpg	 l	 1.670	 GoodTrial	 3.8	 bl
9	 4	 0	 x	 LineStimuli//3.8/stimNo136r0c0v3.8.jpg	 r	 3.283	 GoodTrial	 3.8	 bl
10	 4	 1	 right	 LineStimuli//3.8/stimNo87r6c13v3.8.jpg	 l	 1.500	 GoodTrial	 3.8	 bl
11	 4	 1	 right	 LineStimuli//3.8/stimNo94r6c17v3.8.jpg	 l	 1.522	 GoodTrial	 3.8	 bl
12	 4	 1	 right	 LineStimuli//3.8/stimNo114r10c14v3.8.jpg	 l	 1.414	 GoodTrial	 3.8	 bl
13	 4	 1	 right	 LineStimuli//3.8/stimNo81r3c21v3.8.jpg	 l	 1.470	 GoodTrial	 3.8	 bl
14	 4	 1	 left	 LineStimuli//3.8/stimNo104r12c8v3.8.jpg	 l	 1.414	 GoodTrial	 3.8	 bl
15	 4	 0	 x	 LineStimuli//3.8/stimNo145r0c0v3.8.jpg	 r	 1.769	 GoodTrial	 3.8	 bl
16	 4	 1	 right	 LineStimuli//3.8/stimNo85r3c13v3.8.jpg	 l	 1.426	 GoodTrial	 3.8	 bl
17	 4	 1	 right	 LineStimuli//3.8/stimNo101r12c17v3.8.jpg	 l	 1.465	 GoodTrial	 3.8	 bl
18	 4	 0	 x	 LineStimuli//3.8/stimNo144r0c0v3.8.jpg	 r	 2.806	 GoodTrial	 3.8	 bl
19	 4	 0	 x	 LineStimuli//3.8/stimNo150r0c0v3.8.jpg	 x	 0.391	 EARLY_RESPONSE	 3.8	 bl
20	 4	 0	 x	 LineStimuli//3.8/stimNo142r0c0v3.8.jpg	 r	 2.063	 GoodTrial	 3.8	 bl
21	 4	 1	 left	 LineStimuli//3.8/stimNo86r7c7v3.8.jpg	 l	 1.536	 GoodTrial	 3.8	 bl
22	 4	 0	 x	 LineStimuli//3.8/stimNo130r0c0v3.8.jpg	 x	 0.841	 EARLY_RESPONSE	 3.8	 bl
23	 4	 1	 right	 LineStimuli//3.8/stimNo84r9c19v3.8.jpg	 l	 1.584	 GoodTrial	 3.8	 bl
24	 4	 1	 left	 LineStimuli//3.8/stimNo109r11c8v3.8.jpg	 x	 0.168	 EARLY_RESPONSE	 3.8	 bl
25	 4	 1	 right	 LineStimuli//3.8/stimNo102r10c17v3.8.jpg	 x	 0.616	 EARLY_RESPONSE	 3.8	 bl
26	 4	 1	 right	 LineStimuli//3.8/stimNo99r2c13v3.8.jpg	 x	 0.672	 EARLY_RESPONSE	 3.8	 bl
27	 4	 1	 left	 LineStimuli//3.8/stimNo110r7c9v3.8.jpg	 l	 1.608	 GoodTrial	 3.8	 bl
28	 4	 1	 left	 LineStimuli//3.8/stimNo100r13c6v3.8.jpg	 l	 1.754	 GoodTrial	 3.8	 bl
29	 4	 1	 right	 LineStimuli//3.8/stimNo107r9c18v3.8.jpg	 l	 1.566	 GoodTrial	 3.8	 bl
30	 4	 0	 x	 LineStimuli//3.8/stimNo137r0c0v3.8.jpg	 r	 1.766	 GoodTrial	 3.8	 bl
31	 4	 0	 x	 LineStimuli//3.8/stimNo156r0c0v3.8.jpg	 r	 1.640	 GoodTrial	 3.8	 bl
32	 4	 0	 x	 LineStimuli//3.8/stimNo153r0c0v3.8.jpg	 x	 2.169	 GoodTrial	 3.8	 bl
33	 4	 1	 right	 LineStimuli//3.8/stimNo82r9c21v3.8.jpg	 l	 1.484	 GoodTrial	 3.8	 bl
34	 4	 0	 x	 LineStimuli//3.8/stimNo124r0c0v3.8.jpg	 r	 1.959	 GoodTrial	 3.8	 bl
35	 4	 1	 right	 LineStimuli//3.8/stimNo95r5c21v3.8.jpg	 x	 0.936	 EARLY_RESPONSE	 3.8	 bl
36	 4	 0	 x	 LineStimuli//3.8/stimNo126r0c0v3.8.jpg	 r	 2.197	 GoodTrial	 3.8	 bl
37	 4	 1	 left	 LineStimuli//3.8/stimNo113r14c9v3.8.jpg	 l	 1.781	 GoodTrial	 3.8	 bl
38	 4	 1	 left	 LineStimuli//3.8/stimNo98r2c9v3.8.jpg	 l	 1.476	 GoodTrial	 3.8	 bl
39	 4	 1	 left	 LineStimuli//3.8/stimNo103r11c7v3.8.jpg	 l	 1.488	 GoodTrial	 3.8	 bl
40	 4	 1	 left	 LineStimuli//3.8/stimNo105r2c6v3.8.jpg	 l	 1.475	 GoodTrial	 3.8	 bl
41	 4	 0	 x	 LineStimuli//3.8/stimNo134r0c0v3.8.jpg	 r	 2.073	 GoodTrial	 3.8	 bl
42	 4	 0	 x	 LineStimuli//3.8/stimNo159r0c0v3.8.jpg	 r	 1.825	 GoodTrial	 3.8	 bl
43	 4	 1	 right	 LineStimuli//3.8/stimNo117r6c17v3.8.jpg	 l	 1.493	 GoodTrial	 3.8	 bl
44	 4	 0	 x	 LineStimuli//3.8/stimNo139r0c0v3.8.jpg	 r	 1.875	 GoodTrial	 3.8	 bl
45	 4	 0	 x	 LineStimuli//3.8/stimNo148r0c0v3.8.jpg	 r	 2.242	 GoodTrial	 3.8	 bl
46	 4	 0	 x	 LineStimuli//3.8/stimNo146r0c0v3.8.jpg	 l	 1.804	 GoodTrial	 3.8	 bl
47	 4	 1	 right	 LineStimuli//3.8/stimNo111r15c20v3.8.jpg	 r	 1.867	 GoodTrial	 3.8	 bl
48	 4	 1	 left	 LineStimuli//3.8/stimNo106r9c9v3.8.jpg	 r	 3.625	 GoodTrial	 3.8	 bl
49	 4	 0	 x	 LineStimuli//3.8/stimNo160r0c0v3.8.jpg	 r	 4.521	 GoodTrial	 3.8	 bl
50	 4	 0	 x	 LineStimuli//3.8/stimNo128r0c0v3.8.jpg	 r	 1.587	 GoodTrial	 3.8	 bl
1	 5	 0	 x	 LineStimuli//3.3/stimNo144r0c0v3.3.jpg	 r	 1.672	 GoodTrial	 3.3	 bl
2	 5	 1	 right	 LineStimuli//3.3/stimNo87r15c13v3.3.jpg	 l	 1.936	 GoodTrial	 3.3	 bl
3	 5	 1	 right	 LineStimuli//3.3/stimNo89r5c21v3.3.jpg	 l	 1.528	 GoodTrial	 3.3	 bl
4	 5	 0	 x	 LineStimuli//3.3/stimNo123r0c0v3.3.jpg	 r	 1.788	 GoodTrial	 3.3	 bl
5	 5	 0	 x	 LineStimuli//3.3/stimNo159r0c0v3.3.jpg	 r	 1.614	 GoodTrial	 3.3	 bl
6	 5	 1	 right	 LineStimuli//3.3/stimNo96r8c18v3.3.jpg	 l	 1.456	 GoodTrial	 3.3	 bl
7	 5	 1	 right	 LineStimuli//3.3/stimNo116r10c14v3.3.jpg	 l	 1.398	 GoodTrial	 3.3	 bl
8	 5	 1	 right	 LineStimuli//3.3/stimNo91r12c16v3.3.jpg	 l	 1.426	 GoodTrial	 3.3	 bl
9	 5	 0	 x	 LineStimuli//3.3/stimNo140r0c0v3.3.jpg	 r	 1.836	 GoodTrial	 3.3	 bl
10	 5	 0	 x	 LineStimuli//3.3/stimNo158r0c0v3.3.jpg	 r	 1.698	 GoodTrial	 3.3	 bl
11	 5	 0	 x	 LineStimuli//3.3/stimNo134r0c0v3.3.jpg	 r	 1.838	 GoodTrial	 3.3	 bl
12	 5	 0	 x	 LineStimuli//3.3/stimNo155r0c0v3.3.jpg	 r	 1.769	 GoodTrial	 3.3	 bl
13	 5	 0	 x	 LineStimuli//3.3/stimNo152r0c0v3.3.jpg	 r	 1.601	 GoodTrial	 3.3	 bl
14	 5	 0	 x	 LineStimuli//3.3/stimNo160r0c0v3.3.jpg	 r	 1.616	 GoodTrial	 3.3	 bl
15	 5	 0	 x	 LineStimuli//3.3/stimNo127r0c0v3.3.jpg	 r	 1.756	 GoodTrial	 3.3	 bl
16	 5	 0	 x	 LineStimuli//3.3/stimNo135r0c0v3.3.jpg	 r	 1.574	 GoodTrial	 3.3	 bl
17	 5	 0	 x	 LineStimuli//3.3/stimNo126r0c0v3.3.jpg	 r	 1.586	 GoodTrial	 3.3	 bl
18	 5	 1	 left	 LineStimuli//3.3/stimNo94r14c9v3.3.jpg	 l	 1.557	 GoodTrial	 3.3	 bl
19	 5	 0	 x	 LineStimuli//3.3/stimNo128r0c0v3.3.jpg	 r	 1.673	 GoodTrial	 3.3	 bl
20	 5	 0	 x	 LineStimuli//3.3/stimNo156r0c0v3.3.jpg	 r	 1.675	 GoodTrial	 3.3	 bl
21	 5	 1	 left	 LineStimuli//3.3/stimNo103r6c6v3.3.jpg	 l	 1.504	 GoodTrial	 3.3	 bl
22	 5	 0	 x	 LineStimuli//3.3/stimNo133r0c0v3.3.jpg	 r	 1.931	 GoodTrial	 3.3	 bl
23	 5	 0	 x	 LineStimuli//3.3/stimNo150r0c0v3.3.jpg	 r	 1.946	 GoodTrial	 3.3	 bl
24	 5	 0	 x	 LineStimuli//3.3/stimNo153r0c0v3.3.jpg	 r	 1.880	 GoodTrial	 3.3	 bl
25	 5	 1	 left	 LineStimuli//3.3/stimNo81r15c8v3.3.jpg	 l	 1.503	 GoodTrial	 3.3	 bl
26	 5	 0	 x	 LineStimuli//3.3/stimNo138r0c0v3.3.jpg	 r	 1.556	 GoodTrial	 3.3	 bl
27	 5	 1	 left	 LineStimuli//3.3/stimNo119r15c7v3.3.jpg	 l	 1.529	 GoodTrial	 3.3	 bl
28	 5	 1	 right	 LineStimuli//3.3/stimNo98r4c21v3.3.jpg	 l	 1.637	 GoodTrial	 3.3	 bl
29	 5	 1	 left	 LineStimuli//3.3/stimNo110r4c3v3.3.jpg	 l	 1.539	 GoodTrial	 3.3	 bl
30	 5	 1	 right	 LineStimuli//3.3/stimNo112r5c15v3.3.jpg	 l	 1.520	 GoodTrial	 3.3	 bl
31	 5	 1	 right	 LineStimuli//3.3/stimNo105r7c20v3.3.jpg	 r	 1.325	 GoodTrial	 3.3	 bl
32	 5	 0	 x	 LineStimuli//3.3/stimNo124r0c0v3.3.jpg	 r	 2.134	 GoodTrial	 3.3	 bl
33	 5	 1	 right	 LineStimuli//3.3/stimNo113r13c15v3.3.jpg	 l	 1.601	 GoodTrial	 3.3	 bl
34	 5	 0	 x	 LineStimuli//3.3/stimNo145r0c0v3.3.jpg	 r	 1.752	 GoodTrial	 3.3	 bl
35	 5	 1	 left	 LineStimuli//3.3/stimNo100r3c3v3.3.jpg	 l	 1.513	 GoodTrial	 3.3	 bl
36	 5	 0	 x	 LineStimuli//3.3/stimNo121r0c0v3.3.jpg	 r	 1.943	 GoodTrial	 3.3	 bl
37	 5	 0	 x	 LineStimuli//3.3/stimNo151r0c0v3.3.jpg	 r	 1.748	 GoodTrial	 3.3	 bl
38	 5	 0	 x	 LineStimuli//3.3/stimNo130r0c0v3.3.jpg	 r	 1.677	 GoodTrial	 3.3	 bl
39	 5	 0	 x	 LineStimuli//3.3/stimNo139r0c0v3.3.jpg	 r	 1.809	 GoodTrial	 3.3	 bl
40	 5	 0	 x	 LineStimuli//3.3/stimNo141r0c0v3.3.jpg	 r	 1.832	 GoodTrial	 3.3	 bl
41	 5	 0	 x	 LineStimuli//3.3/stimNo136r0c0v3.3.jpg	 r	 1.587	 GoodTrial	 3.3	 bl
42	 5	 0	 x	 LineStimuli//3.3/stimNo157r0c0v3.3.jpg	 r	 1.683	 GoodTrial	 3.3	 bl
43	 5	 1	 right	 LineStimuli//3.3/stimNo88r9c14v3.3.jpg	 l	 2.077	 GoodTrial	 3.3	 bl
44	 5	 0	 x	 LineStimuli//3.3/stimNo125r0c0v3.3.jpg	 r	 1.631	 GoodTrial	 3.3	 bl
45	 5	 0	 x	 LineStimuli//3.3/stimNo142r0c0v3.3.jpg	 r	 1.679	 GoodTrial	 3.3	 bl
46	 5	 1	 left	 LineStimuli//3.3/stimNo115r3c4v3.3.jpg	 l	 1.465	 GoodTrial	 3.3	 bl
47	 5	 1	 left	 LineStimuli//3.3/stimNo86r5c7v3.3.jpg	 l	 1.551	 GoodTrial	 3.3	 bl
48	 5	 1	 right	 LineStimuli//3.3/stimNo101r7c16v3.3.jpg	 l	 1.569	 GoodTrial	 3.3	 bl
49	 5	 1	 left	 LineStimuli//3.3/stimNo92r10c7v3.3.jpg	 l	 1.385	 GoodTrial	 3.3	 bl
50	 5	 1	 right	 LineStimuli//3.3/stimNo97r6c13v3.3.jpg	 l	 1.421	 GoodTrial	 3.3	 bl
1	 6	 1	 left	 LineStimuli//4.3/stimNo83r4c2v4.3.jpg	 l	 1.569	 GoodTrial	 4.3	 bl
2	 6	 1	 right	 LineStimuli//4.3/stimNo92r2c20v4.3.jpg	 r	 1.458	 GoodTrial	 4.3	 bl
3	 6	 0	 x	 LineStimuli//4.3/stimNo136r0c0v4.3.jpg	 x	 2.557	 GoodTrial	 4.3	 bl
4	 6	 0	 x	 LineStimuli//4.3/stimNo123r0c0v4.3.jpg	 r	 2.192	 GoodTrial	 4.3	 bl
5	 6	 1	 right	 LineStimuli//4.3/stimNo118r11c13v4.3.jpg	 l	 1.650	 GoodTrial	 4.3	 bl
6	 6	 0	 x	 LineStimuli//4.3/stimNo144r0c0v4.3.jpg	 r	 1.636	 GoodTrial	 4.3	 bl
7	 6	 0	 x	 LineStimuli//4.3/stimNo146r0c0v4.3.jpg	 r	 1.560	 GoodTrial	 4.3	 bl
8	 6	 1	 right	 LineStimuli//4.3/stimNo89r3c17v4.3.jpg	 l	 1.470	 GoodTrial	 4.3	 bl
9	 6	 1	 left	 LineStimuli//4.3/stimNo88r10c3v4.3.jpg	 l	 1.535	 GoodTrial	 4.3	 bl
10	 6	 1	 left	 LineStimuli//4.3/stimNo98r3c8v4.3.jpg	 l	 1.555	 GoodTrial	 4.3	 bl
11	 6	 0	 x	 LineStimuli//4.3/stimNo134r0c0v4.3.jpg	 r	 1.666	 GoodTrial	 4.3	 bl
12	 6	 1	 left	 LineStimuli//4.3/stimNo106r8c2v4.3.jpg	 l	 3.256	 GoodTrial	 4.3	 bl
13	 6	 1	 left	 LineStimuli//4.3/stimNo87r3c5v4.3.jpg	 l	 1.675	 GoodTrial	 4.3	 bl
14	 6	 0	 x	 LineStimuli//4.3/stimNo129r0c0v4.3.jpg	 r	 1.602	 GoodTrial	 4.3	 bl
15	 6	 0	 x	 LineStimuli//4.3/stimNo151r0c0v4.3.jpg	 r	 1.644	 GoodTrial	 4.3	 bl
16	 6	 0	 x	 LineStimuli//4.3/stimNo153r0c0v4.3.jpg	 r	 1.598	 GoodTrial	 4.3	 bl
17	 6	 0	 x	 LineStimuli//4.3/stimNo147r0c0v4.3.jpg	 r	 1.695	 GoodTrial	 4.3	 bl
18	 6	 1	 left	 LineStimuli//4.3/stimNo86r7c3v4.3.jpg	 l	 1.648	 GoodTrial	 4.3	 bl
19	 6	 1	 right	 LineStimuli//4.3/stimNo120r8c18v4.3.jpg	 l	 0.551	 EARLY_RESPONSE	 4.3	 bl
20	 6	 1	 right	 LineStimuli//4.3/stimNo91r9c13v4.3.jpg	 l	 1.464	 GoodTrial	 4.3	 bl
21	 6	 0	 x	 LineStimuli//4.3/stimNo154r0c0v4.3.jpg	 r	 1.624	 GoodTrial	 4.3	 bl
22	 6	 0	 x	 LineStimuli//4.3/stimNo131r0c0v4.3.jpg	 l	 1.679	 GoodTrial	 4.3	 bl
23	 6	 0	 x	 LineStimuli//4.3/stimNo145r0c0v4.3.jpg	 r	 1.248	 GoodTrial	 4.3	 bl
24	 6	 1	 left	 LineStimuli//4.3/stimNo111r10c9v4.3.jpg	 l	 1.384	 GoodTrial	 4.3	 bl
25	 6	 0	 x	 LineStimuli//4.3/stimNo121r0c0v4.3.jpg	 r	 1.628	 GoodTrial	 4.3	 bl
26	 6	 0	 x	 LineStimuli//4.3/stimNo150r0c0v4.3.jpg	 r	 1.704	 GoodTrial	 4.3	 bl
27	 6	 0	 x	 LineStimuli//4.3/stimNo160r0c0v4.3.jpg	 r	 3.195	 GoodTrial	 4.3	 bl
28	 6	 1	 right	 LineStimuli//4.3/stimNo97r6c21v4.3.jpg	 l	 1.692	 GoodTrial	 4.3	 bl
29	 6	 0	 x	 LineStimuli//4.3/stimNo152r0c0v4.3.jpg	 r	 1.600	 GoodTrial	 4.3	 bl
30	 6	 1	 right	 LineStimuli//4.3/stimNo102r10c19v4.3.jpg	 l	 1.456	 GoodTrial	 4.3	 bl
31	 6	 0	 x	 LineStimuli//4.3/stimNo133r0c0v4.3.jpg	 r	 1.634	 GoodTrial	 4.3	 bl
32	 6	 0	 x	 LineStimuli//4.3/stimNo127r0c0v4.3.jpg	 r	 1.574	 GoodTrial	 4.3	 bl
33	 6	 1	 left	 LineStimuli//4.3/stimNo95r11c9v4.3.jpg	 l	 1.598	 GoodTrial	 4.3	 bl
34	 6	 0	 x	 LineStimuli//4.3/stimNo130r0c0v4.3.jpg	 r	 1.730	 GoodTrial	 4.3	 bl
35	 6	 0	 x	 LineStimuli//4.3/stimNo135r0c0v4.3.jpg	 r	 1.684	 GoodTrial	 4.3	 bl
36	 6	 1	 right	 LineStimuli//4.3/stimNo114r10c15v4.3.jpg	 r	 2.176	 GoodTrial	 4.3	 bl
37	 6	 0	 x	 LineStimuli//4.3/stimNo143r0c0v4.3.jpg	 r	 1.688	 GoodTrial	 4.3	 bl
38	 6	 0	 x	 LineStimuli//4.3/stimNo125r0c0v4.3.jpg	 r	 1.745	 GoodTrial	 4.3	 bl
39	 6	 0	 x	 LineStimuli//4.3/stimNo128r0c0v4.3.jpg	 r	 1.526	 GoodTrial	 4.3	 bl
40	 6	 0	 x	 LineStimuli//4.3/stimNo138r0c0v4.3.jpg	 r	 1.614	 GoodTrial	 4.3	 bl
41	 6	 1	 left	 LineStimuli//4.3/stimNo100r8c3v4.3.jpg	 l	 1.677	 GoodTrial	 4.3	 bl
42	 6	 1	 right	 LineStimuli//4.3/stimNo112r10c16v4.3.jpg	 l	 1.505	 GoodTrial	 4.3	 bl
43	 6	 1	 left	 LineStimuli//4.3/stimNo101r5c5v4.3.jpg	 l	 1.552	 GoodTrial	 4.3	 bl
44	 6	 1	 left	 LineStimuli//4.3/stimNo105r14c6v4.3.jpg	 l	 1.502	 GoodTrial	 4.3	 bl
45	 6	 0	 x	 LineStimuli//4.3/stimNo159r0c0v4.3.jpg	 r	 2.211	 GoodTrial	 4.3	 bl
46	 6	 0	 x	 LineStimuli//4.3/stimNo155r0c0v4.3.jpg	 r	 1.792	 GoodTrial	 4.3	 bl
47	 6	 0	 x	 LineStimuli//4.3/stimNo137r0c0v4.3.jpg	 r	 1.768	 GoodTrial	 4.3	 bl
48	 6	 1	 left	 LineStimuli//4.3/stimNo85r3c5v4.3.jpg	 l	 1.720	 GoodTrial	 4.3	 bl
49	 6	 0	 x	 LineStimuli//4.3/stimNo149r0c0v4.3.jpg	 r	 1.869	 GoodTrial	 4.3	 bl
50	 6	 1	 left	 LineStimuli//4.3/stimNo107r2c8v4.3.jpg	 l	 1.633	 GoodTrial	 4.3	 bl
1	 7	 0	 x	 LineStimuli//2.8/stimNo135r0c0v2.8.jpg	 r	 1.688	 GoodTrial	 2.8	 bl
2	 7	 1	 right	 LineStimuli//2.8/stimNo93r9c20v2.8.jpg	 r	 1.568	 GoodTrial	 2.8	 bl
3	 7	 0	 x	 LineStimuli//2.8/stimNo145r0c0v2.8.jpg	 x	 1.193	 GoodTrial	 2.8	 bl
4	 7	 1	 right	 LineStimuli//2.8/stimNo110r7c14v2.8.jpg	 l	 1.549	 GoodTrial	 2.8	 bl
5	 7	 0	 x	 LineStimuli//2.8/stimNo154r0c0v2.8.jpg	 r	 1.819	 GoodTrial	 2.8	 bl
6	 7	 1	 right	 LineStimuli//2.8/stimNo112r13c17v2.8.jpg	 l	 1.561	 GoodTrial	 2.8	 bl
7	 7	 1	 left	 LineStimuli//2.8/stimNo98r15c2v2.8.jpg	 l	 2.065	 GoodTrial	 2.8	 bl
8	 7	 1	 left	 LineStimuli//2.8/stimNo119r8c5v2.8.jpg	 l	 1.549	 GoodTrial	 2.8	 bl
9	 7	 1	 right	 LineStimuli//2.8/stimNo111r9c15v2.8.jpg	 l	 1.541	 GoodTrial	 2.8	 bl
10	 7	 1	 left	 LineStimuli//2.8/stimNo116r4c7v2.8.jpg	 l	 1.459	 GoodTrial	 2.8	 bl
11	 7	 0	 x	 LineStimuli//2.8/stimNo150r0c0v2.8.jpg	 r	 1.981	 GoodTrial	 2.8	 bl
12	 7	 1	 left	 LineStimuli//2.8/stimNo107r5c6v2.8.jpg	 l	 1.505	 GoodTrial	 2.8	 bl
13	 7	 1	 right	 LineStimuli//2.8/stimNo99r9c18v2.8.jpg	 l	 1.743	 GoodTrial	 2.8	 bl
14	 7	 0	 x	 LineStimuli//2.8/stimNo157r0c0v2.8.jpg	 r	 1.901	 GoodTrial	 2.8	 bl
15	 7	 1	 right	 LineStimuli//2.8/stimNo118r5c16v2.8.jpg	 l	 1.463	 GoodTrial	 2.8	 bl
16	 7	 1	 left	 LineStimuli//2.8/stimNo84r3c9v2.8.jpg	 l	 1.557	 GoodTrial	 2.8	 bl
17	 7	 0	 x	 LineStimuli//2.8/stimNo128r0c0v2.8.jpg	 r	 1.825	 GoodTrial	 2.8	 bl
18	 7	 1	 left	 LineStimuli//2.8/stimNo108r13c6v2.8.jpg	 l	 1.392	 GoodTrial	 2.8	 bl
19	 7	 1	 left	 LineStimuli//2.8/stimNo82r4c6v2.8.jpg	 l	 1.919	 GoodTrial	 2.8	 bl
20	 7	 0	 x	 LineStimuli//2.8/stimNo133r0c0v2.8.jpg	 r	 1.656	 GoodTrial	 2.8	 bl
21	 7	 0	 x	 LineStimuli//2.8/stimNo123r0c0v2.8.jpg	 r	 1.726	 GoodTrial	 2.8	 bl
22	 7	 0	 x	 LineStimuli//2.8/stimNo159r0c0v2.8.jpg	 r	 1.577	 GoodTrial	 2.8	 bl
23	 7	 0	 x	 LineStimuli//2.8/stimNo146r0c0v2.8.jpg	 r	 1.639	 GoodTrial	 2.8	 bl
24	 7	 0	 x	 LineStimuli//2.8/stimNo140r0c0v2.8.jpg	 r	 1.602	 GoodTrial	 2.8	 bl
25	 7	 0	 x	 LineStimuli//2.8/stimNo129r0c0v2.8.jpg	 r	 1.552	 GoodTrial	 2.8	 bl
26	 7	 0	 x	 LineStimuli//2.8/stimNo136r0c0v2.8.jpg	 r	 1.504	 GoodTrial	 2.8	 bl
27	 7	 0	 x	 LineStimuli//2.8/stimNo138r0c0v2.8.jpg	 r	 1.377	 GoodTrial	 2.8	 bl
28	 7	 0	 x	 LineStimuli//2.8/stimNo147r0c0v2.8.jpg	 r	 1.353	 GoodTrial	 2.8	 bl
29	 7	 1	 left	 LineStimuli//2.8/stimNo91r2c3v2.8.jpg	 l	 1.531	 GoodTrial	 2.8	 bl
30	 7	 0	 x	 LineStimuli//2.8/stimNo142r0c0v2.8.jpg	 r	 1.953	 GoodTrial	 2.8	 bl
31	 7	 1	 left	 LineStimuli//2.8/stimNo104r8c6v2.8.jpg	 r	 2.109	 GoodTrial	 2.8	 bl
32	 7	 1	 right	 LineStimuli//2.8/stimNo115r9c14v2.8.jpg	 l	 2.087	 GoodTrial	 2.8	 bl
33	 7	 1	 right	 LineStimuli//2.8/stimNo106r13c20v2.8.jpg	 l	 1.500	 GoodTrial	 2.8	 bl
34	 7	 1	 right	 LineStimuli//2.8/stimNo103r3c19v2.8.jpg	 l	 1.536	 GoodTrial	 2.8	 bl
35	 7	 0	 x	 LineStimuli//2.8/stimNo160r0c0v2.8.jpg	 r	 1.641	 GoodTrial	 2.8	 bl
36	 7	 1	 right	 LineStimuli//2.8/stimNo109r6c18v2.8.jpg	 l	 1.419	 GoodTrial	 2.8	 bl
37	 7	 0	 x	 LineStimuli//2.8/stimNo127r0c0v2.8.jpg	 r	 5.297	 GoodTrial	 2.8	 bl
38	 7	 0	 x	 LineStimuli//2.8/stimNo155r0c0v2.8.jpg	 r	 1.845	 GoodTrial	 2.8	 bl
39	 7	 0	 x	 LineStimuli//2.8/stimNo139r0c0v2.8.jpg	 r	 1.929	 GoodTrial	 2.8	 bl
40	 7	 1	 left	 LineStimuli//2.8/stimNo96r6c9v2.8.jpg	 l	 1.457	 GoodTrial	 2.8	 bl
41	 7	 1	 right	 LineStimuli//2.8/stimNo92r14c21v2.8.jpg	 l	 1.625	 GoodTrial	 2.8	 bl
42	 7	 1	 right	 LineStimuli//2.8/stimNo81r8c14v2.8.jpg	 l	 1.431	 GoodTrial	 2.8	 bl
43	 7	 0	 x	 LineStimuli//2.8/stimNo153r0c0v2.8.jpg	 r	 1.599	 GoodTrial	 2.8	 bl
44	 7	 1	 left	 LineStimuli//2.8/stimNo83r12c4v2.8.jpg	 l	 1.373	 GoodTrial	 2.8	 bl
45	 7	 1	 right	 LineStimuli//2.8/stimNo114r8c19v2.8.jpg	 r	 1.352	 GoodTrial	 2.8	 bl
46	 7	 1	 left	 LineStimuli//2.8/stimNo94r13c7v2.8.jpg	 l	 1.473	 GoodTrial	 2.8	 bl
47	 7	 1	 right	 LineStimuli//2.8/stimNo117r11c17v2.8.jpg	 l	 1.451	 GoodTrial	 2.8	 bl
48	 7	 0	 x	 LineStimuli//2.8/stimNo125r0c0v2.8.jpg	 r	 1.727	 GoodTrial	 2.8	 bl
49	 7	 1	 right	 LineStimuli//2.8/stimNo90r13c21v2.8.jpg	 l	 1.463	 GoodTrial	 2.8	 bl
50	 7	 0	 x	 LineStimuli//2.8/stimNo156r0c0v2.8.jpg	 r	 1.777	 GoodTrial	 2.8	 bl
