Trial	Block	Target_pr	Target_side	Name	Key	RT	Message	Block_Type	Condition
1	 1	 0	 x	 LineStimuli//3.8/stimNo123r0c0v3.8.jpg	 r	 5.387	 GoodTrial	 3.8	 bl
2	 1	 1	 right	 LineStimuli//3.8/stimNo101r12c17v3.8.jpg	 l	 1.880	 GoodTrial	 3.8	 bl
3	 1	 0	 x	 LineStimuli//3.8/stimNo133r0c0v3.8.jpg	 r	 2.609	 GoodTrial	 3.8	 bl
4	 1	 1	 left	 LineStimuli//3.8/stimNo119r9c8v3.8.jpg	 l	 1.758	 GoodTrial	 3.8	 bl
5	 1	 0	 x	 LineStimuli//3.8/stimNo139r0c0v3.8.jpg	 r	 2.409	 GoodTrial	 3.8	 bl
6	 1	 1	 left	 LineStimuli//3.8/stimNo106r9c9v3.8.jpg	 l	 2.215	 GoodTrial	 3.8	 bl
7	 1	 0	 x	 LineStimuli//3.8/stimNo122r0c0v3.8.jpg	 r	 2.340	 GoodTrial	 3.8	 bl
8	 1	 1	 left	 LineStimuli//3.8/stimNo115r14c10v3.8.jpg	 l	 1.865	 GoodTrial	 3.8	 bl
9	 1	 0	 x	 LineStimuli//3.8/stimNo152r0c0v3.8.jpg	 r	 2.324	 GoodTrial	 3.8	 bl
10	 1	 1	 right	 LineStimuli//3.8/stimNo107r9c18v3.8.jpg	 l	 3.277	 GoodTrial	 3.8	 bl
11	 1	 0	 x	 LineStimuli//3.8/stimNo121r0c0v3.8.jpg	 r	 3.546	 GoodTrial	 3.8	 bl
12	 1	 0	 x	 LineStimuli//3.8/stimNo135r0c0v3.8.jpg	 r	 3.006	 GoodTrial	 3.8	 bl
13	 1	 1	 left	 LineStimuli//3.8/stimNo89r10c7v3.8.jpg	 l	 1.901	 GoodTrial	 3.8	 bl
14	 1	 1	 right	 LineStimuli//3.8/stimNo85r3c13v3.8.jpg	 l	 1.975	 GoodTrial	 3.8	 bl
15	 1	 1	 right	 LineStimuli//3.8/stimNo114r10c14v3.8.jpg	 l	 1.641	 GoodTrial	 3.8	 bl
16	 1	 1	 right	 LineStimuli//3.8/stimNo82r9c21v3.8.jpg	 l	 1.607	 GoodTrial	 3.8	 bl
17	 1	 0	 x	 LineStimuli//3.8/stimNo149r0c0v3.8.jpg	 r	 3.348	 GoodTrial	 3.8	 bl
18	 1	 0	 x	 LineStimuli//3.8/stimNo141r0c0v3.8.jpg	 r	 4.958	 GoodTrial	 3.8	 bl
19	 1	 0	 x	 LineStimuli//3.8/stimNo155r0c0v3.8.jpg	 r	 2.693	 GoodTrial	 3.8	 bl
20	 1	 0	 x	 LineStimuli//3.8/stimNo131r0c0v3.8.jpg	 r	 4.190	 GoodTrial	 3.8	 bl
21	 1	 0	 x	 LineStimuli//3.8/stimNo145r0c0v3.8.jpg	 r	 5.095	 GoodTrial	 3.8	 bl
22	 1	 0	 x	 LineStimuli//3.8/stimNo150r0c0v3.8.jpg	 r	 2.664	 GoodTrial	 3.8	 bl
23	 1	 1	 right	 LineStimuli//3.8/stimNo81r3c21v3.8.jpg	 l	 1.768	 GoodTrial	 3.8	 bl
24	 1	 0	 x	 LineStimuli//3.8/stimNo124r0c0v3.8.jpg	 r	 3.775	 GoodTrial	 3.8	 bl
25	 1	 0	 x	 LineStimuli//3.8/stimNo158r0c0v3.8.jpg	 r	 3.284	 GoodTrial	 3.8	 bl
26	 1	 1	 left	 LineStimuli//3.8/stimNo116r7c3v3.8.jpg	 l	 2.008	 GoodTrial	 3.8	 bl
27	 1	 0	 x	 LineStimuli//3.8/stimNo156r0c0v3.8.jpg	 r	 2.880	 GoodTrial	 3.8	 bl
28	 1	 1	 right	 LineStimuli//3.8/stimNo102r10c17v3.8.jpg	 l	 1.853	 GoodTrial	 3.8	 bl
29	 1	 0	 x	 LineStimuli//3.8/stimNo128r0c0v3.8.jpg	 r	 3.622	 GoodTrial	 3.8	 bl
30	 1	 0	 x	 LineStimuli//3.8/stimNo137r0c0v3.8.jpg	 r	 3.344	 GoodTrial	 3.8	 bl
31	 1	 1	 left	 LineStimuli//3.8/stimNo110r7c9v3.8.jpg	 l	 1.680	 GoodTrial	 3.8	 bl
32	 1	 1	 right	 LineStimuli//3.8/stimNo92r6c21v3.8.jpg	 l	 1.653	 GoodTrial	 3.8	 bl
33	 1	 1	 right	 LineStimuli//3.8/stimNo99r2c13v3.8.jpg	 l	 1.933	 GoodTrial	 3.8	 bl
34	 1	 0	 x	 LineStimuli//3.8/stimNo138r0c0v3.8.jpg	 r	 2.991	 GoodTrial	 3.8	 bl
35	 1	 1	 left	 LineStimuli//3.8/stimNo98r2c9v3.8.jpg	 l	 1.682	 GoodTrial	 3.8	 bl
36	 1	 0	 x	 LineStimuli//3.8/stimNo146r0c0v3.8.jpg	 r	 4.067	 GoodTrial	 3.8	 bl
37	 1	 1	 left	 LineStimuli//3.8/stimNo118r4c8v3.8.jpg	 l	 1.592	 GoodTrial	 3.8	 bl
38	 1	 0	 x	 LineStimuli//3.8/stimNo125r0c0v3.8.jpg	 r	 2.940	 GoodTrial	 3.8	 bl
39	 1	 0	 x	 LineStimuli//3.8/stimNo148r0c0v3.8.jpg	 r	 4.896	 GoodTrial	 3.8	 bl
40	 1	 1	 left	 LineStimuli//3.8/stimNo104r12c8v3.8.jpg	 l	 1.784	 GoodTrial	 3.8	 bl
41	 1	 1	 left	 LineStimuli//3.8/stimNo93r8c2v3.8.jpg	 l	 1.894	 GoodTrial	 3.8	 bl
42	 1	 1	 left	 LineStimuli//3.8/stimNo86r7c7v3.8.jpg	 l	 1.752	 GoodTrial	 3.8	 bl
43	 1	 1	 left	 LineStimuli//3.8/stimNo103r11c7v3.8.jpg	 l	 1.703	 GoodTrial	 3.8	 bl
44	 1	 0	 x	 LineStimuli//3.8/stimNo132r0c0v3.8.jpg	 r	 3.253	 GoodTrial	 3.8	 bl
45	 1	 0	 x	 LineStimuli//3.8/stimNo144r0c0v3.8.jpg	 r	 4.690	 GoodTrial	 3.8	 bl
46	 1	 1	 right	 LineStimuli//3.8/stimNo84r9c19v3.8.jpg	 l	 1.880	 GoodTrial	 3.8	 bl
47	 1	 1	 left	 LineStimuli//3.8/stimNo109r11c8v3.8.jpg	 l	 1.757	 GoodTrial	 3.8	 bl
48	 1	 0	 x	 LineStimuli//3.8/stimNo154r0c0v3.8.jpg	 r	 6.258	 GoodTrial	 3.8	 bl
49	 1	 0	 x	 LineStimuli//3.8/stimNo143r0c0v3.8.jpg	 r	 3.736	 GoodTrial	 3.8	 bl
50	 1	 0	 x	 LineStimuli//3.8/stimNo159r0c0v3.8.jpg	 r	 5.489	 GoodTrial	 3.8	 bl
1	 2	 1	 right	 LineStimuli//3.3/stimNo112r5c15v3.3.jpg	 l	 1.840	 GoodTrial	 3.3	 bl
2	 2	 0	 x	 LineStimuli//3.3/stimNo133r0c0v3.3.jpg	 r	 5.130	 GoodTrial	 3.3	 bl
3	 2	 0	 x	 LineStimuli//3.3/stimNo121r0c0v3.3.jpg	 r	 13.502	 GoodTrial	 3.3	 bl
4	 2	 1	 right	 LineStimuli//3.3/stimNo105r7c20v3.3.jpg	 l	 1.798	 GoodTrial	 3.3	 bl
5	 2	 1	 left	 LineStimuli//3.3/stimNo106r9c9v3.3.jpg	 l	 1.695	 GoodTrial	 3.3	 bl
6	 2	 0	 x	 LineStimuli//3.3/stimNo156r0c0v3.3.jpg	 r	 11.640	 GoodTrial	 3.3	 bl
7	 2	 0	 x	 LineStimuli//3.3/stimNo150r0c0v3.3.jpg	 r	 10.526	 GoodTrial	 3.3	 bl
8	 2	 0	 x	 LineStimuli//3.3/stimNo139r0c0v3.3.jpg	 r	 9.596	 GoodTrial	 3.3	 bl
9	 2	 1	 left	 LineStimuli//3.3/stimNo95r15c8v3.3.jpg	 l	 2.192	 GoodTrial	 3.3	 bl
10	 2	 1	 left	 LineStimuli//3.3/stimNo93r3c5v3.3.jpg	 l	 2.697	 GoodTrial	 3.3	 bl
11	 2	 0	 x	 LineStimuli//3.3/stimNo125r0c0v3.3.jpg	 r	 11.791	 GoodTrial	 3.3	 bl
12	 2	 0	 x	 LineStimuli//3.3/stimNo127r0c0v3.3.jpg	 r	 7.982	 GoodTrial	 3.3	 bl
13	 2	 1	 left	 LineStimuli//3.3/stimNo103r6c6v3.3.jpg	 l	 1.847	 GoodTrial	 3.3	 bl
14	 2	 0	 x	 LineStimuli//3.3/stimNo126r0c0v3.3.jpg	 r	 8.699	 GoodTrial	 3.3	 bl
15	 2	 1	 right	 LineStimuli//3.3/stimNo102r13c13v3.3.jpg	 l	 2.283	 GoodTrial	 3.3	 bl
16	 2	 0	 x	 LineStimuli//3.3/stimNo147r0c0v3.3.jpg	 r	 8.087	 GoodTrial	 3.3	 bl
17	 2	 0	 x	 LineStimuli//3.3/stimNo135r0c0v3.3.jpg	 r	 8.436	 GoodTrial	 3.3	 bl
18	 2	 1	 right	 LineStimuli//3.3/stimNo107r2c17v3.3.jpg	 l	 1.736	 GoodTrial	 3.3	 bl
19	 2	 0	 x	 LineStimuli//3.3/stimNo124r0c0v3.3.jpg	 r	 7.260	 GoodTrial	 3.3	 bl
20	 2	 0	 x	 LineStimuli//3.3/stimNo130r0c0v3.3.jpg	 r	 4.440	 GoodTrial	 3.3	 bl
21	 2	 1	 right	 LineStimuli//3.3/stimNo101r7c16v3.3.jpg	 l	 1.920	 GoodTrial	 3.3	 bl
22	 2	 0	 x	 LineStimuli//3.3/stimNo131r0c0v3.3.jpg	 r	 3.219	 GoodTrial	 3.3	 bl
23	 2	 1	 left	 LineStimuli//3.3/stimNo100r3c3v3.3.jpg	 l	 1.673	 GoodTrial	 3.3	 bl
24	 2	 1	 left	 LineStimuli//3.3/stimNo111r15c7v3.3.jpg	 l	 2.425	 GoodTrial	 3.3	 bl
25	 2	 1	 right	 LineStimuli//3.3/stimNo96r8c18v3.3.jpg	 l	 1.908	 GoodTrial	 3.3	 bl
26	 2	 0	 x	 LineStimuli//3.3/stimNo129r0c0v3.3.jpg	 r	 6.304	 GoodTrial	 3.3	 bl
27	 2	 0	 x	 LineStimuli//3.3/stimNo128r0c0v3.3.jpg	 r	 3.451	 GoodTrial	 3.3	 bl
28	 2	 1	 left	 LineStimuli//3.3/stimNo117r2c5v3.3.jpg	 l	 1.852	 GoodTrial	 3.3	 bl
29	 2	 0	 x	 LineStimuli//3.3/stimNo144r0c0v3.3.jpg	 r	 3.262	 GoodTrial	 3.3	 bl
30	 2	 0	 x	 LineStimuli//3.3/stimNo159r0c0v3.3.jpg	 r	 4.080	 GoodTrial	 3.3	 bl
31	 2	 1	 right	 LineStimuli//3.3/stimNo99r6c17v3.3.jpg	 x	 0.752	 EARLY_RESPONSE	 3.3	 bl
32	 2	 1	 right	 LineStimuli//3.3/stimNo113r13c15v3.3.jpg	 l	 2.083	 GoodTrial	 3.3	 bl
33	 2	 1	 right	 LineStimuli//3.3/stimNo118r3c16v3.3.jpg	 l	 1.785	 GoodTrial	 3.3	 bl
34	 2	 1	 left	 LineStimuli//3.3/stimNo115r3c4v3.3.jpg	 l	 1.731	 GoodTrial	 3.3	 bl
35	 2	 1	 right	 LineStimuli//3.3/stimNo84r6c16v3.3.jpg	 l	 1.557	 GoodTrial	 3.3	 bl
36	 2	 0	 x	 LineStimuli//3.3/stimNo136r0c0v3.3.jpg	 r	 2.868	 GoodTrial	 3.3	 bl
37	 2	 1	 right	 LineStimuli//3.3/stimNo88r9c14v3.3.jpg	 l	 1.738	 GoodTrial	 3.3	 bl
38	 2	 0	 x	 LineStimuli//3.3/stimNo134r0c0v3.3.jpg	 r	 2.950	 GoodTrial	 3.3	 bl
39	 2	 1	 right	 LineStimuli//3.3/stimNo87r15c13v3.3.jpg	 l	 2.137	 GoodTrial	 3.3	 bl
40	 2	 0	 x	 LineStimuli//3.3/stimNo155r0c0v3.3.jpg	 r	 3.150	 GoodTrial	 3.3	 bl
41	 2	 0	 x	 LineStimuli//3.3/stimNo158r0c0v3.3.jpg	 r	 4.174	 GoodTrial	 3.3	 bl
42	 2	 0	 x	 LineStimuli//3.3/stimNo160r0c0v3.3.jpg	 r	 4.193	 GoodTrial	 3.3	 bl
43	 2	 0	 x	 LineStimuli//3.3/stimNo157r0c0v3.3.jpg	 r	 2.392	 GoodTrial	 3.3	 bl
44	 2	 0	 x	 LineStimuli//3.3/stimNo148r0c0v3.3.jpg	 r	 4.458	 GoodTrial	 3.3	 bl
45	 2	 1	 left	 LineStimuli//3.3/stimNo108r13c2v3.3.jpg	 l	 1.732	 GoodTrial	 3.3	 bl
46	 2	 1	 left	 LineStimuli//3.3/stimNo81r15c8v3.3.jpg	 l	 2.281	 GoodTrial	 3.3	 bl
47	 2	 0	 x	 LineStimuli//3.3/stimNo137r0c0v3.3.jpg	 r	 8.130	 GoodTrial	 3.3	 bl
48	 2	 0	 x	 LineStimuli//3.3/stimNo132r0c0v3.3.jpg	 r	 6.848	 GoodTrial	 3.3	 bl
49	 2	 1	 left	 LineStimuli//3.3/stimNo94r14c9v3.3.jpg	 l	 1.844	 GoodTrial	 3.3	 bl
50	 2	 1	 right	 LineStimuli//3.3/stimNo82r11c20v3.3.jpg	 l	 1.860	 GoodTrial	 3.3	 bl
1	 3	 0	 x	 LineStimuli//1.5/stimNo128r0c0v1.5.jpg	 r	 15.323	 GoodTrial	 1.5	 bl
2	 3	 0	 x	 LineStimuli//1.5/stimNo135r0c0v1.5.jpg	 r	 11.609	 GoodTrial	 1.5	 bl
3	 3	 1	 left	 LineStimuli//1.5/stimNo110r7c3v1.5.jpg	 r	 14.709	 GoodTrial	 1.5	 bl
4	 3	 0	 x	 LineStimuli//1.5/stimNo133r0c0v1.5.jpg	 r	 26.506	 GoodTrial	 1.5	 bl
5	 3	 0	 x	 LineStimuli//1.5/stimNo141r0c0v1.5.jpg	 r	 21.914	 GoodTrial	 1.5	 bl
6	 3	 1	 left	 LineStimuli//1.5/stimNo91r9c3v1.5.jpg	 r	 21.145	 GoodTrial	 1.5	 bl
7	 3	 1	 right	 LineStimuli//1.5/stimNo111r7c17v1.5.jpg	 r	 27.573	 GoodTrial	 1.5	 bl
8	 3	 0	 x	 LineStimuli//1.5/stimNo134r0c0v1.5.jpg	 r	 24.821	 GoodTrial	 1.5	 bl
9	 3	 1	 right	 LineStimuli//1.5/stimNo90r3c15v1.5.jpg	 r	 22.062	 GoodTrial	 1.5	 bl
10	 3	 0	 x	 LineStimuli//1.5/stimNo151r0c0v1.5.jpg	 r	 38.017	 GoodTrial	 1.5	 bl
11	 3	 0	 x	 LineStimuli//1.5/stimNo144r0c0v1.5.jpg	 r	 56.372	 GoodTrial	 1.5	 bl
12	 3	 1	 left	 LineStimuli//1.5/stimNo114r4c4v1.5.jpg	 l	 8.945	 GoodTrial	 1.5	 bl
13	 3	 0	 x	 LineStimuli//1.5/stimNo139r0c0v1.5.jpg	 r	 9.431	 GoodTrial	 1.5	 bl
14	 3	 0	 x	 LineStimuli//1.5/stimNo121r0c0v1.5.jpg	 r	 5.742	 GoodTrial	 1.5	 bl
15	 3	 1	 right	 LineStimuli//1.5/stimNo93r14c18v1.5.jpg	 r	 31.369	 GoodTrial	 1.5	 bl
16	 3	 1	 right	 LineStimuli//1.5/stimNo118r9c20v1.5.jpg	 r	 52.580	 GoodTrial	 1.5	 bl
17	 3	 0	 x	 LineStimuli//1.5/stimNo130r0c0v1.5.jpg	 l	 15.157	 GoodTrial	 1.5	 bl
18	 3	 1	 right	 LineStimuli//1.5/stimNo104r5c18v1.5.jpg	 l	 4.545	 GoodTrial	 1.5	 bl
19	 3	 0	 x	 LineStimuli//1.5/stimNo159r0c0v1.5.jpg	 r	 9.656	 GoodTrial	 1.5	 bl
20	 3	 1	 left	 LineStimuli//1.5/stimNo94r10c6v1.5.jpg	 r	 39.438	 GoodTrial	 1.5	 bl
21	 3	 0	 x	 LineStimuli//1.5/stimNo147r0c0v1.5.jpg	 r	 26.652	 GoodTrial	 1.5	 bl
22	 3	 1	 left	 LineStimuli//1.5/stimNo106r3c7v1.5.jpg	 l	 14.803	 GoodTrial	 1.5	 bl
23	 3	 0	 x	 LineStimuli//1.5/stimNo157r0c0v1.5.jpg	 r	 44.295	 GoodTrial	 1.5	 bl
24	 3	 1	 left	 LineStimuli//1.5/stimNo113r4c4v1.5.jpg	 l	 3.410	 GoodTrial	 1.5	 bl
25	 3	 0	 x	 LineStimuli//1.5/stimNo129r0c0v1.5.jpg	 r	 34.304	 GoodTrial	 1.5	 bl
26	 3	 1	 right	 LineStimuli//1.5/stimNo84r3c18v1.5.jpg	 l	 28.287	 GoodTrial	 1.5	 bl
27	 3	 0	 x	 LineStimuli//1.5/stimNo153r0c0v1.5.jpg	 r	 36.389	 GoodTrial	 1.5	 bl
28	 3	 0	 x	 LineStimuli//1.5/stimNo146r0c0v1.5.jpg	 r	 31.296	 GoodTrial	 1.5	 bl
29	 3	 1	 left	 LineStimuli//1.5/stimNo83r12c7v1.5.jpg	 l	 3.300	 GoodTrial	 1.5	 bl
30	 3	 0	 x	 LineStimuli//1.5/stimNo160r0c0v1.5.jpg	 r	 12.899	 GoodTrial	 1.5	 bl
31	 3	 0	 x	 LineStimuli//1.5/stimNo131r0c0v1.5.jpg	 r	 4.335	 GoodTrial	 1.5	 bl
32	 3	 1	 left	 LineStimuli//1.5/stimNo96r15c4v1.5.jpg	 r	 17.652	 GoodTrial	 1.5	 bl
33	 3	 1	 right	 LineStimuli//1.5/stimNo105r3c18v1.5.jpg	 r	 24.722	 GoodTrial	 1.5	 bl
34	 3	 0	 x	 LineStimuli//1.5/stimNo124r0c0v1.5.jpg	 r	 31.865	 GoodTrial	 1.5	 bl
35	 3	 0	 x	 LineStimuli//1.5/stimNo154r0c0v1.5.jpg	 r	 11.170	 GoodTrial	 1.5	 bl
36	 3	 0	 x	 LineStimuli//1.5/stimNo127r0c0v1.5.jpg	 r	 10.234	 GoodTrial	 1.5	 bl
37	 3	 1	 left	 LineStimuli//1.5/stimNo99r10c3v1.5.jpg	 l	 12.720	 GoodTrial	 1.5	 bl
38	 3	 1	 left	 LineStimuli//1.5/stimNo120r14c2v1.5.jpg	 l	 3.006	 GoodTrial	 1.5	 bl
39	 3	 0	 x	 LineStimuli//1.5/stimNo138r0c0v1.5.jpg	 r	 15.898	 GoodTrial	 1.5	 bl
40	 3	 1	 right	 LineStimuli//1.5/stimNo95r6c14v1.5.jpg	 r	 17.341	 GoodTrial	 1.5	 bl
41	 3	 0	 x	 LineStimuli//1.5/stimNo142r0c0v1.5.jpg	 r	 17.719	 GoodTrial	 1.5	 bl
42	 3	 1	 right	 LineStimuli//1.5/stimNo119r6c19v1.5.jpg	 l	 4.825	 GoodTrial	 1.5	 bl
43	 3	 1	 left	 LineStimuli//1.5/stimNo112r9c5v1.5.jpg	 r	 19.864	 GoodTrial	 1.5	 bl
44	 3	 1	 right	 LineStimuli//1.5/stimNo107r2c19v1.5.jpg	 r	 17.949	 GoodTrial	 1.5	 bl
45	 3	 1	 right	 LineStimuli//1.5/stimNo98r8c21v1.5.jpg	 r	 7.107	 GoodTrial	 1.5	 bl
46	 3	 1	 left	 LineStimuli//1.5/stimNo116r7c7v1.5.jpg	 r	 26.213	 GoodTrial	 1.5	 bl
47	 3	 1	 right	 LineStimuli//1.5/stimNo108r13c15v1.5.jpg	 l	 7.277	 GoodTrial	 1.5	 bl
48	 3	 0	 x	 LineStimuli//1.5/stimNo136r0c0v1.5.jpg	 l	 2.546	 GoodTrial	 1.5	 bl
49	 3	 0	 x	 LineStimuli//1.5/stimNo149r0c0v1.5.jpg	 r	 3.203	 GoodTrial	 1.5	 bl
50	 3	 0	 x	 LineStimuli//1.5/stimNo140r0c0v1.5.jpg	 r	 2.739	 GoodTrial	 1.5	 bl
1	 4	 0	 x	 LineStimuli//2.3/stimNo141r0c0v2.3.jpg	 r	 18.220	 GoodTrial	 2.3	 bl
2	 4	 0	 x	 LineStimuli//2.3/stimNo128r0c0v2.3.jpg	 r	 3.510	 GoodTrial	 2.3	 bl
3	 4	 1	 left	 LineStimuli//2.3/stimNo108r15c6v2.3.jpg	 l	 2.859	 GoodTrial	 2.3	 bl
4	 4	 0	 x	 LineStimuli//2.3/stimNo147r0c0v2.3.jpg	 r	 4.290	 GoodTrial	 2.3	 bl
5	 4	 0	 x	 LineStimuli//2.3/stimNo156r0c0v2.3.jpg	 r	 5.043	 GoodTrial	 2.3	 bl
6	 4	 1	 left	 LineStimuli//2.3/stimNo88r15c2v2.3.jpg	 l	 2.619	 GoodTrial	 2.3	 bl
7	 4	 0	 x	 LineStimuli//2.3/stimNo137r0c0v2.3.jpg	 r	 4.899	 GoodTrial	 2.3	 bl
8	 4	 0	 x	 LineStimuli//2.3/stimNo145r0c0v2.3.jpg	 r	 5.006	 GoodTrial	 2.3	 bl
9	 4	 1	 right	 LineStimuli//2.3/stimNo109r2c17v2.3.jpg	 l	 2.364	 GoodTrial	 2.3	 bl
10	 4	 0	 x	 LineStimuli//2.3/stimNo140r0c0v2.3.jpg	 r	 3.804	 GoodTrial	 2.3	 bl
11	 4	 0	 x	 LineStimuli//2.3/stimNo134r0c0v2.3.jpg	 r	 4.019	 GoodTrial	 2.3	 bl
12	 4	 1	 right	 LineStimuli//2.3/stimNo110r15c19v2.3.jpg	 l	 2.060	 GoodTrial	 2.3	 bl
13	 4	 1	 left	 LineStimuli//2.3/stimNo96r3c3v2.3.jpg	 l	 1.864	 GoodTrial	 2.3	 bl
14	 4	 1	 right	 LineStimuli//2.3/stimNo107r11c15v2.3.jpg	 l	 1.789	 GoodTrial	 2.3	 bl
15	 4	 1	 right	 LineStimuli//2.3/stimNo89r8c21v2.3.jpg	 l	 1.886	 GoodTrial	 2.3	 bl
16	 4	 0	 x	 LineStimuli//2.3/stimNo132r0c0v2.3.jpg	 r	 4.969	 GoodTrial	 2.3	 bl
17	 4	 0	 x	 LineStimuli//2.3/stimNo153r0c0v2.3.jpg	 r	 4.314	 GoodTrial	 2.3	 bl
18	 4	 1	 left	 LineStimuli//2.3/stimNo100r8c6v2.3.jpg	 l	 2.258	 GoodTrial	 2.3	 bl
19	 4	 0	 x	 LineStimuli//2.3/stimNo122r0c0v2.3.jpg	 r	 3.120	 GoodTrial	 2.3	 bl
20	 4	 1	 left	 LineStimuli//2.3/stimNo97r3c3v2.3.jpg	 l	 2.006	 GoodTrial	 2.3	 bl
21	 4	 1	 left	 LineStimuli//2.3/stimNo94r8c9v2.3.jpg	 l	 1.993	 GoodTrial	 2.3	 bl
22	 4	 0	 x	 LineStimuli//2.3/stimNo131r0c0v2.3.jpg	 r	 3.040	 GoodTrial	 2.3	 bl
23	 4	 1	 right	 LineStimuli//2.3/stimNo87r13c19v2.3.jpg	 r	 2.432	 GoodTrial	 2.3	 bl
24	 4	 0	 x	 LineStimuli//2.3/stimNo154r0c0v2.3.jpg	 r	 4.218	 GoodTrial	 2.3	 bl
25	 4	 1	 left	 LineStimuli//2.3/stimNo81r4c3v2.3.jpg	 l	 1.751	 GoodTrial	 2.3	 bl
26	 4	 1	 left	 LineStimuli//2.3/stimNo104r2c4v2.3.jpg	 l	 1.866	 GoodTrial	 2.3	 bl
27	 4	 1	 left	 LineStimuli//2.3/stimNo83r14c4v2.3.jpg	 l	 2.554	 GoodTrial	 2.3	 bl
28	 4	 0	 x	 LineStimuli//2.3/stimNo130r0c0v2.3.jpg	 r	 4.563	 GoodTrial	 2.3	 bl
29	 4	 0	 x	 LineStimuli//2.3/stimNo150r0c0v2.3.jpg	 r	 3.826	 GoodTrial	 2.3	 bl
30	 4	 1	 right	 LineStimuli//2.3/stimNo103r11c21v2.3.jpg	 l	 1.896	 GoodTrial	 2.3	 bl
31	 4	 1	 right	 LineStimuli//2.3/stimNo99r2c13v2.3.jpg	 r	 3.735	 GoodTrial	 2.3	 bl
32	 4	 1	 left	 LineStimuli//2.3/stimNo117r11c8v2.3.jpg	 l	 2.248	 GoodTrial	 2.3	 bl
33	 4	 0	 x	 LineStimuli//2.3/stimNo138r0c0v2.3.jpg	 r	 4.517	 GoodTrial	 2.3	 bl
34	 4	 0	 x	 LineStimuli//2.3/stimNo127r0c0v2.3.jpg	 r	 5.330	 GoodTrial	 2.3	 bl
35	 4	 0	 x	 LineStimuli//2.3/stimNo158r0c0v2.3.jpg	 r	 3.739	 GoodTrial	 2.3	 bl
36	 4	 0	 x	 LineStimuli//2.3/stimNo125r0c0v2.3.jpg	 r	 3.423	 GoodTrial	 2.3	 bl
37	 4	 1	 right	 LineStimuli//2.3/stimNo84r15c14v2.3.jpg	 l	 2.547	 GoodTrial	 2.3	 bl
38	 4	 1	 right	 LineStimuli//2.3/stimNo92r10c17v2.3.jpg	 l	 2.898	 GoodTrial	 2.3	 bl
39	 4	 0	 x	 LineStimuli//2.3/stimNo159r0c0v2.3.jpg	 r	 5.656	 GoodTrial	 2.3	 bl
40	 4	 1	 left	 LineStimuli//2.3/stimNo119r3c2v2.3.jpg	 l	 1.925	 GoodTrial	 2.3	 bl
41	 4	 0	 x	 LineStimuli//2.3/stimNo136r0c0v2.3.jpg	 r	 4.304	 GoodTrial	 2.3	 bl
42	 4	 0	 x	 LineStimuli//2.3/stimNo149r0c0v2.3.jpg	 r	 4.850	 GoodTrial	 2.3	 bl
43	 4	 0	 x	 LineStimuli//2.3/stimNo135r0c0v2.3.jpg	 r	 4.225	 GoodTrial	 2.3	 bl
44	 4	 1	 left	 LineStimuli//2.3/stimNo95r13c9v2.3.jpg	 l	 1.818	 GoodTrial	 2.3	 bl
45	 4	 1	 right	 LineStimuli//2.3/stimNo90r14c21v2.3.jpg	 l	 1.769	 GoodTrial	 2.3	 bl
46	 4	 1	 right	 LineStimuli//2.3/stimNo85r4c15v2.3.jpg	 l	 2.954	 GoodTrial	 2.3	 bl
47	 4	 0	 x	 LineStimuli//2.3/stimNo126r0c0v2.3.jpg	 r	 6.127	 GoodTrial	 2.3	 bl
48	 4	 0	 x	 LineStimuli//2.3/stimNo155r0c0v2.3.jpg	 r	 3.712	 GoodTrial	 2.3	 bl
49	 4	 0	 x	 LineStimuli//2.3/stimNo139r0c0v2.3.jpg	 r	 3.997	 GoodTrial	 2.3	 bl
50	 4	 1	 left	 LineStimuli//2.3/stimNo112r3c2v2.3.jpg	 l	 1.867	 GoodTrial	 2.3	 bl
1	 5	 1	 left	 LineStimuli//4.3/stimNo85r3c5v4.3.jpg	 l	 1.945	 GoodTrial	 4.3	 bl
2	 5	 0	 x	 LineStimuli//4.3/stimNo134r0c0v4.3.jpg	 r	 3.636	 GoodTrial	 4.3	 bl
3	 5	 0	 x	 LineStimuli//4.3/stimNo129r0c0v4.3.jpg	 r	 3.302	 GoodTrial	 4.3	 bl
4	 5	 1	 left	 LineStimuli//4.3/stimNo113r11c7v4.3.jpg	 l	 1.580	 GoodTrial	 4.3	 bl
5	 5	 1	 left	 LineStimuli//4.3/stimNo88r10c3v4.3.jpg	 l	 1.524	 GoodTrial	 4.3	 bl
6	 5	 1	 right	 LineStimuli//4.3/stimNo99r14c18v4.3.jpg	 l	 1.554	 GoodTrial	 4.3	 bl
7	 5	 1	 right	 LineStimuli//4.3/stimNo94r12c13v4.3.jpg	 l	 1.646	 GoodTrial	 4.3	 bl
8	 5	 0	 x	 LineStimuli//4.3/stimNo155r0c0v4.3.jpg	 r	 2.802	 GoodTrial	 4.3	 bl
9	 5	 1	 right	 LineStimuli//4.3/stimNo119r12c17v4.3.jpg	 l	 1.555	 GoodTrial	 4.3	 bl
10	 5	 0	 x	 LineStimuli//4.3/stimNo141r0c0v4.3.jpg	 r	 2.075	 GoodTrial	 4.3	 bl
11	 5	 0	 x	 LineStimuli//4.3/stimNo154r0c0v4.3.jpg	 r	 2.575	 GoodTrial	 4.3	 bl
12	 5	 0	 x	 LineStimuli//4.3/stimNo125r0c0v4.3.jpg	 r	 2.216	 GoodTrial	 4.3	 bl
13	 5	 1	 right	 LineStimuli//4.3/stimNo120r8c18v4.3.jpg	 l	 1.529	 GoodTrial	 4.3	 bl
14	 5	 1	 right	 LineStimuli//4.3/stimNo112r10c16v4.3.jpg	 l	 2.648	 GoodTrial	 4.3	 bl
15	 5	 1	 left	 LineStimuli//4.3/stimNo105r14c6v4.3.jpg	 l	 1.502	 GoodTrial	 4.3	 bl
16	 5	 1	 right	 LineStimuli//4.3/stimNo92r2c20v4.3.jpg	 l	 1.566	 GoodTrial	 4.3	 bl
17	 5	 1	 left	 LineStimuli//4.3/stimNo90r10c4v4.3.jpg	 l	 1.582	 GoodTrial	 4.3	 bl
18	 5	 0	 x	 LineStimuli//4.3/stimNo147r0c0v4.3.jpg	 r	 2.384	 GoodTrial	 4.3	 bl
19	 5	 0	 x	 LineStimuli//4.3/stimNo152r0c0v4.3.jpg	 r	 2.183	 GoodTrial	 4.3	 bl
20	 5	 0	 x	 LineStimuli//4.3/stimNo158r0c0v4.3.jpg	 r	 3.101	 GoodTrial	 4.3	 bl
21	 5	 1	 right	 LineStimuli//4.3/stimNo96r4c19v4.3.jpg	 l	 1.573	 GoodTrial	 4.3	 bl
22	 5	 0	 x	 LineStimuli//4.3/stimNo156r0c0v4.3.jpg	 r	 2.266	 GoodTrial	 4.3	 bl
23	 5	 0	 x	 LineStimuli//4.3/stimNo123r0c0v4.3.jpg	 r	 2.156	 GoodTrial	 4.3	 bl
24	 5	 0	 x	 LineStimuli//4.3/stimNo150r0c0v4.3.jpg	 r	 1.924	 GoodTrial	 4.3	 bl
25	 5	 0	 x	 LineStimuli//4.3/stimNo121r0c0v4.3.jpg	 r	 1.797	 GoodTrial	 4.3	 bl
26	 5	 0	 x	 LineStimuli//4.3/stimNo145r0c0v4.3.jpg	 r	 2.282	 GoodTrial	 4.3	 bl
27	 5	 1	 right	 LineStimuli//4.3/stimNo117r10c21v4.3.jpg	 l	 3.658	 GoodTrial	 4.3	 bl
28	 5	 0	 x	 LineStimuli//4.3/stimNo131r0c0v4.3.jpg	 r	 2.810	 GoodTrial	 4.3	 bl
29	 5	 1	 left	 LineStimuli//4.3/stimNo95r11c9v4.3.jpg	 l	 1.660	 GoodTrial	 4.3	 bl
30	 5	 0	 x	 LineStimuli//4.3/stimNo126r0c0v4.3.jpg	 r	 2.221	 GoodTrial	 4.3	 bl
31	 5	 0	 x	 LineStimuli//4.3/stimNo159r0c0v4.3.jpg	 r	 2.064	 GoodTrial	 4.3	 bl
32	 5	 1	 right	 LineStimuli//4.3/stimNo102r10c19v4.3.jpg	 l	 1.496	 GoodTrial	 4.3	 bl
33	 5	 0	 x	 LineStimuli//4.3/stimNo153r0c0v4.3.jpg	 r	 1.610	 GoodTrial	 4.3	 bl
34	 5	 1	 left	 LineStimuli//4.3/stimNo108r5c8v4.3.jpg	 l	 1.767	 GoodTrial	 4.3	 bl
35	 5	 0	 x	 LineStimuli//4.3/stimNo160r0c0v4.3.jpg	 r	 2.036	 GoodTrial	 4.3	 bl
36	 5	 1	 right	 LineStimuli//4.3/stimNo118r11c13v4.3.jpg	 l	 2.063	 GoodTrial	 4.3	 bl
37	 5	 0	 x	 LineStimuli//4.3/stimNo130r0c0v4.3.jpg	 r	 2.163	 GoodTrial	 4.3	 bl
38	 5	 0	 x	 LineStimuli//4.3/stimNo144r0c0v4.3.jpg	 r	 2.224	 GoodTrial	 4.3	 bl
39	 5	 1	 right	 LineStimuli//4.3/stimNo91r9c13v4.3.jpg	 l	 1.801	 GoodTrial	 4.3	 bl
40	 5	 0	 x	 LineStimuli//4.3/stimNo136r0c0v4.3.jpg	 r	 1.775	 GoodTrial	 4.3	 bl
41	 5	 0	 x	 LineStimuli//4.3/stimNo124r0c0v4.3.jpg	 r	 1.957	 GoodTrial	 4.3	 bl
42	 5	 0	 x	 LineStimuli//4.3/stimNo137r0c0v4.3.jpg	 r	 1.974	 GoodTrial	 4.3	 bl
43	 5	 0	 x	 LineStimuli//4.3/stimNo142r0c0v4.3.jpg	 r	 1.943	 GoodTrial	 4.3	 bl
44	 5	 0	 x	 LineStimuli//4.3/stimNo140r0c0v4.3.jpg	 r	 1.769	 GoodTrial	 4.3	 bl
45	 5	 0	 x	 LineStimuli//4.3/stimNo149r0c0v4.3.jpg	 r	 1.992	 GoodTrial	 4.3	 bl
46	 5	 0	 x	 LineStimuli//4.3/stimNo139r0c0v4.3.jpg	 r	 2.276	 GoodTrial	 4.3	 bl
47	 5	 0	 x	 LineStimuli//4.3/stimNo143r0c0v4.3.jpg	 r	 1.919	 GoodTrial	 4.3	 bl
48	 5	 1	 left	 LineStimuli//4.3/stimNo101r5c5v4.3.jpg	 l	 1.631	 GoodTrial	 4.3	 bl
49	 5	 0	 x	 LineStimuli//4.3/stimNo133r0c0v4.3.jpg	 r	 2.087	 GoodTrial	 4.3	 bl
50	 5	 0	 x	 LineStimuli//4.3/stimNo132r0c0v4.3.jpg	 r	 1.954	 GoodTrial	 4.3	 bl
1	 6	 0	 x	 LineStimuli//1.8/stimNo123r0c0v1.8.jpg	 r	 3.254	 GoodTrial	 1.8	 bl
2	 6	 0	 x	 LineStimuli//1.8/stimNo157r0c0v1.8.jpg	 r	 2.939	 GoodTrial	 1.8	 bl
3	 6	 1	 right	 LineStimuli//1.8/stimNo83r6c13v1.8.jpg	 r	 2.831	 GoodTrial	 1.8	 bl
4	 6	 0	 x	 LineStimuli//1.8/stimNo144r0c0v1.8.jpg	 r	 2.319	 GoodTrial	 1.8	 bl
5	 6	 1	 left	 LineStimuli//1.8/stimNo98r15c5v1.8.jpg	 r	 4.239	 GoodTrial	 1.8	 bl
6	 6	 0	 x	 LineStimuli//1.8/stimNo138r0c0v1.8.jpg	 r	 4.708	 GoodTrial	 1.8	 bl
7	 6	 1	 right	 LineStimuli//1.8/stimNo109r7c17v1.8.jpg	 r	 2.333	 GoodTrial	 1.8	 bl
8	 6	 0	 x	 LineStimuli//1.8/stimNo154r0c0v1.8.jpg	 l	 3.051	 GoodTrial	 1.8	 bl
9	 6	 1	 right	 LineStimuli//1.8/stimNo93r3c17v1.8.jpg	 r	 1.692	 GoodTrial	 1.8	 bl
10	 6	 1	 left	 LineStimuli//1.8/stimNo120r14c9v1.8.jpg	 r	 2.537	 GoodTrial	 1.8	 bl
11	 6	 0	 x	 LineStimuli//1.8/stimNo150r0c0v1.8.jpg	 r	 4.927	 GoodTrial	 1.8	 bl
12	 6	 1	 left	 LineStimuli//1.8/stimNo89r11c6v1.8.jpg	 l	 3.062	 GoodTrial	 1.8	 bl
13	 6	 0	 x	 LineStimuli//1.8/stimNo125r0c0v1.8.jpg	 r	 3.519	 GoodTrial	 1.8	 bl
14	 6	 0	 x	 LineStimuli//1.8/stimNo133r0c0v1.8.jpg	 r	 2.999	 GoodTrial	 1.8	 bl
15	 6	 0	 x	 LineStimuli//1.8/stimNo146r0c0v1.8.jpg	 r	 3.150	 GoodTrial	 1.8	 bl
16	 6	 0	 x	 LineStimuli//1.8/stimNo147r0c0v1.8.jpg	 r	 2.784	 GoodTrial	 1.8	 bl
17	 6	 1	 right	 LineStimuli//1.8/stimNo102r14c17v1.8.jpg	 r	 3.245	 GoodTrial	 1.8	 bl
18	 6	 1	 left	 LineStimuli//1.8/stimNo116r4c7v1.8.jpg	 r	 2.710	 GoodTrial	 1.8	 bl
19	 6	 1	 right	 LineStimuli//1.8/stimNo111r4c21v1.8.jpg	 l	 2.381	 GoodTrial	 1.8	 bl
20	 6	 0	 x	 LineStimuli//1.8/stimNo122r0c0v1.8.jpg	 r	 3.743	 GoodTrial	 1.8	 bl
21	 6	 1	 right	 LineStimuli//1.8/stimNo97r15c18v1.8.jpg	 l	 3.600	 GoodTrial	 1.8	 bl
22	 6	 1	 right	 LineStimuli//1.8/stimNo100r9c13v1.8.jpg	 r	 3.311	 GoodTrial	 1.8	 bl
23	 6	 1	 right	 LineStimuli//1.8/stimNo101r4c13v1.8.jpg	 l	 4.795	 GoodTrial	 1.8	 bl
24	 6	 1	 left	 LineStimuli//1.8/stimNo115r5c9v1.8.jpg	 l	 3.521	 GoodTrial	 1.8	 bl
25	 6	 0	 x	 LineStimuli//1.8/stimNo156r0c0v1.8.jpg	 r	 4.295	 GoodTrial	 1.8	 bl
26	 6	 1	 right	 LineStimuli//1.8/stimNo84r11c21v1.8.jpg	 l	 3.808	 GoodTrial	 1.8	 bl
27	 6	 1	 right	 LineStimuli//1.8/stimNo92r10c18v1.8.jpg	 l	 1.862	 GoodTrial	 1.8	 bl
28	 6	 1	 right	 LineStimuli//1.8/stimNo90r15c13v1.8.jpg	 l	 2.952	 GoodTrial	 1.8	 bl
29	 6	 0	 x	 LineStimuli//1.8/stimNo143r0c0v1.8.jpg	 r	 3.995	 GoodTrial	 1.8	 bl
30	 6	 0	 x	 LineStimuli//1.8/stimNo159r0c0v1.8.jpg	 r	 3.533	 GoodTrial	 1.8	 bl
31	 6	 1	 left	 LineStimuli//1.8/stimNo105r6c5v1.8.jpg	 l	 1.999	 GoodTrial	 1.8	 bl
32	 6	 1	 left	 LineStimuli//1.8/stimNo81r6c8v1.8.jpg	 r	 3.133	 GoodTrial	 1.8	 bl
33	 6	 1	 left	 LineStimuli//1.8/stimNo96r13c2v1.8.jpg	 l	 2.384	 GoodTrial	 1.8	 bl
34	 6	 1	 right	 LineStimuli//1.8/stimNo112r6c15v1.8.jpg	 l	 1.988	 GoodTrial	 1.8	 bl
35	 6	 0	 x	 LineStimuli//1.8/stimNo135r0c0v1.8.jpg	 r	 3.620	 GoodTrial	 1.8	 bl
36	 6	 0	 x	 LineStimuli//1.8/stimNo130r0c0v1.8.jpg	 r	 3.409	 GoodTrial	 1.8	 bl
37	 6	 0	 x	 LineStimuli//1.8/stimNo145r0c0v1.8.jpg	 r	 3.370	 GoodTrial	 1.8	 bl
38	 6	 1	 left	 LineStimuli//1.8/stimNo95r4c9v1.8.jpg	 l	 2.177	 GoodTrial	 1.8	 bl
39	 6	 0	 x	 LineStimuli//1.8/stimNo137r0c0v1.8.jpg	 r	 3.675	 GoodTrial	 1.8	 bl
40	 6	 1	 left	 LineStimuli//1.8/stimNo91r14c4v1.8.jpg	 l	 1.894	 GoodTrial	 1.8	 bl
41	 6	 0	 x	 LineStimuli//1.8/stimNo126r0c0v1.8.jpg	 r	 3.576	 GoodTrial	 1.8	 bl
42	 6	 1	 right	 LineStimuli//1.8/stimNo119r3c21v1.8.jpg	 l	 2.050	 GoodTrial	 1.8	 bl
43	 6	 0	 x	 LineStimuli//1.8/stimNo139r0c0v1.8.jpg	 r	 2.880	 GoodTrial	 1.8	 bl
44	 6	 1	 left	 LineStimuli//1.8/stimNo85r13c2v1.8.jpg	 r	 2.676	 GoodTrial	 1.8	 bl
45	 6	 0	 x	 LineStimuli//1.8/stimNo128r0c0v1.8.jpg	 r	 4.234	 GoodTrial	 1.8	 bl
46	 6	 1	 right	 LineStimuli//1.8/stimNo118r11c15v1.8.jpg	 l	 1.815	 GoodTrial	 1.8	 bl
47	 6	 1	 right	 LineStimuli//1.8/stimNo99r12c16v1.8.jpg	 l	 1.731	 GoodTrial	 1.8	 bl
48	 6	 0	 x	 LineStimuli//1.8/stimNo160r0c0v1.8.jpg	 r	 3.438	 GoodTrial	 1.8	 bl
49	 6	 0	 x	 LineStimuli//1.8/stimNo153r0c0v1.8.jpg	 r	 2.866	 GoodTrial	 1.8	 bl
50	 6	 0	 x	 LineStimuli//1.8/stimNo131r0c0v1.8.jpg	 r	 3.238	 GoodTrial	 1.8	 bl
1	 7	 1	 right	 LineStimuli//2.8/stimNo118r5c16v2.8.jpg	 l	 3.296	 GoodTrial	 2.8	 bl
2	 7	 1	 right	 LineStimuli//2.8/stimNo120r8c20v2.8.jpg	 l	 1.656	 GoodTrial	 2.8	 bl
3	 7	 1	 left	 LineStimuli//2.8/stimNo87r11c8v2.8.jpg	 l	 1.820	 GoodTrial	 2.8	 bl
4	 7	 0	 x	 LineStimuli//2.8/stimNo124r0c0v2.8.jpg	 r	 2.400	 GoodTrial	 2.8	 bl
5	 7	 1	 left	 LineStimuli//2.8/stimNo97r11c4v2.8.jpg	 l	 1.610	 GoodTrial	 2.8	 bl
6	 7	 1	 right	 LineStimuli//2.8/stimNo93r9c20v2.8.jpg	 l	 1.568	 GoodTrial	 2.8	 bl
7	 7	 1	 left	 LineStimuli//2.8/stimNo116r4c7v2.8.jpg	 l	 1.624	 GoodTrial	 2.8	 bl
8	 7	 0	 x	 LineStimuli//2.8/stimNo143r0c0v2.8.jpg	 r	 2.428	 GoodTrial	 2.8	 bl
9	 7	 0	 x	 LineStimuli//2.8/stimNo137r0c0v2.8.jpg	 r	 2.395	 GoodTrial	 2.8	 bl
10	 7	 0	 x	 LineStimuli//2.8/stimNo125r0c0v2.8.jpg	 r	 2.178	 GoodTrial	 2.8	 bl
11	 7	 0	 x	 LineStimuli//2.8/stimNo131r0c0v2.8.jpg	 r	 2.194	 GoodTrial	 2.8	 bl
12	 7	 0	 x	 LineStimuli//2.8/stimNo128r0c0v2.8.jpg	 r	 2.552	 GoodTrial	 2.8	 bl
13	 7	 1	 right	 LineStimuli//2.8/stimNo114r8c19v2.8.jpg	 l	 1.858	 GoodTrial	 2.8	 bl
14	 7	 0	 x	 LineStimuli//2.8/stimNo130r0c0v2.8.jpg	 r	 2.062	 GoodTrial	 2.8	 bl
15	 7	 1	 right	 LineStimuli//2.8/stimNo90r13c21v2.8.jpg	 l	 2.122	 GoodTrial	 2.8	 bl
16	 7	 1	 left	 LineStimuli//2.8/stimNo108r13c6v2.8.jpg	 l	 1.712	 GoodTrial	 2.8	 bl
17	 7	 0	 x	 LineStimuli//2.8/stimNo138r0c0v2.8.jpg	 r	 1.953	 GoodTrial	 2.8	 bl
18	 7	 1	 left	 LineStimuli//2.8/stimNo83r12c4v2.8.jpg	 l	 1.554	 GoodTrial	 2.8	 bl
19	 7	 1	 right	 LineStimuli//2.8/stimNo117r11c17v2.8.jpg	 l	 1.576	 GoodTrial	 2.8	 bl
20	 7	 1	 left	 LineStimuli//2.8/stimNo104r8c6v2.8.jpg	 l	 1.548	 GoodTrial	 2.8	 bl
21	 7	 1	 right	 LineStimuli//2.8/stimNo111r9c15v2.8.jpg	 l	 1.596	 GoodTrial	 2.8	 bl
22	 7	 1	 right	 LineStimuli//2.8/stimNo92r14c21v2.8.jpg	 l	 1.653	 GoodTrial	 2.8	 bl
23	 7	 1	 left	 LineStimuli//2.8/stimNo98r15c2v2.8.jpg	 l	 1.588	 GoodTrial	 2.8	 bl
24	 7	 0	 x	 LineStimuli//2.8/stimNo126r0c0v2.8.jpg	 r	 2.071	 GoodTrial	 2.8	 bl
25	 7	 0	 x	 LineStimuli//2.8/stimNo129r0c0v2.8.jpg	 r	 2.489	 GoodTrial	 2.8	 bl
26	 7	 1	 left	 LineStimuli//2.8/stimNo105r5c4v2.8.jpg	 l	 2.156	 GoodTrial	 2.8	 bl
27	 7	 1	 right	 LineStimuli//2.8/stimNo106r13c20v2.8.jpg	 l	 1.558	 GoodTrial	 2.8	 bl
28	 7	 0	 x	 LineStimuli//2.8/stimNo157r0c0v2.8.jpg	 r	 2.083	 GoodTrial	 2.8	 bl
29	 7	 1	 left	 LineStimuli//2.8/stimNo119r8c5v2.8.jpg	 l	 1.726	 GoodTrial	 2.8	 bl
30	 7	 1	 left	 LineStimuli//2.8/stimNo84r3c9v2.8.jpg	 l	 1.968	 GoodTrial	 2.8	 bl
31	 7	 1	 left	 LineStimuli//2.8/stimNo94r13c7v2.8.jpg	 l	 1.602	 GoodTrial	 2.8	 bl
32	 7	 1	 right	 LineStimuli//2.8/stimNo115r9c14v2.8.jpg	 l	 1.565	 GoodTrial	 2.8	 bl
33	 7	 1	 right	 LineStimuli//2.8/stimNo112r13c17v2.8.jpg	 l	 1.499	 GoodTrial	 2.8	 bl
34	 7	 0	 x	 LineStimuli//2.8/stimNo158r0c0v2.8.jpg	 r	 2.149	 GoodTrial	 2.8	 bl
35	 7	 1	 right	 LineStimuli//2.8/stimNo99r9c18v2.8.jpg	 l	 1.440	 GoodTrial	 2.8	 bl
36	 7	 0	 x	 LineStimuli//2.8/stimNo141r0c0v2.8.jpg	 r	 1.896	 GoodTrial	 2.8	 bl
37	 7	 0	 x	 LineStimuli//2.8/stimNo127r0c0v2.8.jpg	 r	 2.150	 GoodTrial	 2.8	 bl
38	 7	 1	 left	 LineStimuli//2.8/stimNo113r9c5v2.8.jpg	 l	 1.561	 GoodTrial	 2.8	 bl
39	 7	 0	 x	 LineStimuli//2.8/stimNo144r0c0v2.8.jpg	 r	 2.271	 GoodTrial	 2.8	 bl
40	 7	 1	 right	 LineStimuli//2.8/stimNo103r3c19v2.8.jpg	 l	 1.561	 GoodTrial	 2.8	 bl
41	 7	 0	 x	 LineStimuli//2.8/stimNo145r0c0v2.8.jpg	 r	 2.599	 GoodTrial	 2.8	 bl
42	 7	 0	 x	 LineStimuli//2.8/stimNo154r0c0v2.8.jpg	 r	 2.352	 GoodTrial	 2.8	 bl
43	 7	 0	 x	 LineStimuli//2.8/stimNo150r0c0v2.8.jpg	 r	 2.691	 GoodTrial	 2.8	 bl
44	 7	 0	 x	 LineStimuli//2.8/stimNo133r0c0v2.8.jpg	 r	 2.877	 GoodTrial	 2.8	 bl
45	 7	 0	 x	 LineStimuli//2.8/stimNo140r0c0v2.8.jpg	 r	 2.966	 GoodTrial	 2.8	 bl
46	 7	 1	 right	 LineStimuli//2.8/stimNo101r12c16v2.8.jpg	 l	 1.576	 GoodTrial	 2.8	 bl
47	 7	 1	 right	 LineStimuli//2.8/stimNo85r4c15v2.8.jpg	 l	 2.099	 GoodTrial	 2.8	 bl
48	 7	 1	 left	 LineStimuli//2.8/stimNo88r15c3v2.8.jpg	 l	 1.710	 GoodTrial	 2.8	 bl
49	 7	 0	 x	 LineStimuli//2.8/stimNo149r0c0v2.8.jpg	 r	 2.562	 GoodTrial	 2.8	 bl
50	 7	 0	 x	 LineStimuli//2.8/stimNo159r0c0v2.8.jpg	 r	 2.794	 GoodTrial	 2.8	 bl
