Trial	Block	Target_pr	Target_side	Name	Key	RT	Message	Block_Type	Condition
1	 1	 0	 x	 LineStimuli//2.3/stimNo140r0c0v2.3.jpg	 r	 5.598	 GoodTrial	 2.3	 bl
2	 1	 0	 x	 LineStimuli//2.3/stimNo133r0c0v2.3.jpg	 r	 3.884	 GoodTrial	 2.3	 bl
3	 1	 1	 right	 LineStimuli//2.3/stimNo91r11c20v2.3.jpg	 l	 1.641	 GoodTrial	 2.3	 bl
4	 1	 1	 right	 LineStimuli//2.3/stimNo118r4c17v2.3.jpg	 l	 1.544	 GoodTrial	 2.3	 bl
5	 1	 1	 left	 LineStimuli//2.3/stimNo97r3c3v2.3.jpg	 l	 2.343	 GoodTrial	 2.3	 bl
6	 1	 1	 right	 LineStimuli//2.3/stimNo102r6c18v2.3.jpg	 l	 1.556	 GoodTrial	 2.3	 bl
7	 1	 0	 x	 LineStimuli//2.3/stimNo142r0c0v2.3.jpg	 r	 4.321	 GoodTrial	 2.3	 bl
8	 1	 0	 x	 LineStimuli//2.3/stimNo134r0c0v2.3.jpg	 r	 3.976	 GoodTrial	 2.3	 bl
9	 1	 1	 left	 LineStimuli//2.3/stimNo113r3c8v2.3.jpg	 l	 1.671	 GoodTrial	 2.3	 bl
10	 1	 0	 x	 LineStimuli//2.3/stimNo138r0c0v2.3.jpg	 r	 2.391	 GoodTrial	 2.3	 bl
11	 1	 0	 x	 LineStimuli//2.3/stimNo125r0c0v2.3.jpg	 r	 3.468	 GoodTrial	 2.3	 bl
12	 1	 0	 x	 LineStimuli//2.3/stimNo128r0c0v2.3.jpg	 r	 3.148	 GoodTrial	 2.3	 bl
13	 1	 1	 right	 LineStimuli//2.3/stimNo111r11c21v2.3.jpg	 l	 1.480	 GoodTrial	 2.3	 bl
14	 1	 1	 left	 LineStimuli//2.3/stimNo83r14c4v2.3.jpg	 l	 1.808	 GoodTrial	 2.3	 bl
15	 1	 1	 left	 LineStimuli//2.3/stimNo119r3c2v2.3.jpg	 l	 1.633	 GoodTrial	 2.3	 bl
16	 1	 1	 left	 LineStimuli//2.3/stimNo95r13c9v2.3.jpg	 l	 1.569	 GoodTrial	 2.3	 bl
17	 1	 1	 right	 LineStimuli//2.3/stimNo109r2c17v2.3.jpg	 l	 1.667	 GoodTrial	 2.3	 bl
18	 1	 1	 left	 LineStimuli//2.3/stimNo112r3c2v2.3.jpg	 l	 1.536	 GoodTrial	 2.3	 bl
19	 1	 1	 right	 LineStimuli//2.3/stimNo98r12c21v2.3.jpg	 l	 1.415	 GoodTrial	 2.3	 bl
20	 1	 1	 left	 LineStimuli//2.3/stimNo94r8c9v2.3.jpg	 l	 1.541	 GoodTrial	 2.3	 bl
21	 1	 0	 x	 LineStimuli//2.3/stimNo139r0c0v2.3.jpg	 r	 2.307	 GoodTrial	 2.3	 bl
22	 1	 0	 x	 LineStimuli//2.3/stimNo150r0c0v2.3.jpg	 r	 2.352	 GoodTrial	 2.3	 bl
23	 1	 1	 right	 LineStimuli//2.3/stimNo107r11c15v2.3.jpg	 l	 1.451	 GoodTrial	 2.3	 bl
24	 1	 1	 left	 LineStimuli//2.3/stimNo96r3c3v2.3.jpg	 l	 1.463	 GoodTrial	 2.3	 bl
25	 1	 0	 x	 LineStimuli//2.3/stimNo132r0c0v2.3.jpg	 r	 1.839	 GoodTrial	 2.3	 bl
26	 1	 0	 x	 LineStimuli//2.3/stimNo159r0c0v2.3.jpg	 r	 1.859	 GoodTrial	 2.3	 bl
27	 1	 1	 left	 LineStimuli//2.3/stimNo81r4c3v2.3.jpg	 l	 1.430	 GoodTrial	 2.3	 bl
28	 1	 0	 x	 LineStimuli//2.3/stimNo126r0c0v2.3.jpg	 r	 1.807	 GoodTrial	 2.3	 bl
29	 1	 1	 right	 LineStimuli//2.3/stimNo110r15c19v2.3.jpg	 l	 1.500	 GoodTrial	 2.3	 bl
30	 1	 1	 right	 LineStimuli//2.3/stimNo101r8c14v2.3.jpg	 l	 1.722	 GoodTrial	 2.3	 bl
31	 1	 0	 x	 LineStimuli//2.3/stimNo130r0c0v2.3.jpg	 r	 1.818	 GoodTrial	 2.3	 bl
32	 1	 1	 left	 LineStimuli//2.3/stimNo115r7c3v2.3.jpg	 l	 1.444	 GoodTrial	 2.3	 bl
33	 1	 0	 x	 LineStimuli//2.3/stimNo131r0c0v2.3.jpg	 r	 1.997	 GoodTrial	 2.3	 bl
34	 1	 0	 x	 LineStimuli//2.3/stimNo135r0c0v2.3.jpg	 r	 1.855	 GoodTrial	 2.3	 bl
35	 1	 1	 right	 LineStimuli//2.3/stimNo89r8c21v2.3.jpg	 l	 1.493	 GoodTrial	 2.3	 bl
36	 1	 1	 left	 LineStimuli//2.3/stimNo108r15c6v2.3.jpg	 l	 1.580	 GoodTrial	 2.3	 bl
37	 1	 1	 right	 LineStimuli//2.3/stimNo85r4c15v2.3.jpg	 l	 1.444	 GoodTrial	 2.3	 bl
38	 1	 0	 x	 LineStimuli//2.3/stimNo144r0c0v2.3.jpg	 r	 1.719	 GoodTrial	 2.3	 bl
39	 1	 0	 x	 LineStimuli//2.3/stimNo154r0c0v2.3.jpg	 r	 1.758	 GoodTrial	 2.3	 bl
40	 1	 0	 x	 LineStimuli//2.3/stimNo122r0c0v2.3.jpg	 r	 1.656	 GoodTrial	 2.3	 bl
41	 1	 0	 x	 LineStimuli//2.3/stimNo160r0c0v2.3.jpg	 r	 1.770	 GoodTrial	 2.3	 bl
42	 1	 1	 right	 LineStimuli//2.3/stimNo90r14c21v2.3.jpg	 l	 1.493	 GoodTrial	 2.3	 bl
43	 1	 0	 x	 LineStimuli//2.3/stimNo148r0c0v2.3.jpg	 r	 1.638	 GoodTrial	 2.3	 bl
44	 1	 0	 x	 LineStimuli//2.3/stimNo152r0c0v2.3.jpg	 r	 1.726	 GoodTrial	 2.3	 bl
45	 1	 1	 left	 LineStimuli//2.3/stimNo100r8c6v2.3.jpg	 l	 1.447	 GoodTrial	 2.3	 bl
46	 1	 1	 left	 LineStimuli//2.3/stimNo114r7c8v2.3.jpg	 l	 1.506	 GoodTrial	 2.3	 bl
47	 1	 0	 x	 LineStimuli//2.3/stimNo129r0c0v2.3.jpg	 r	 1.659	 GoodTrial	 2.3	 bl
48	 1	 0	 x	 LineStimuli//2.3/stimNo143r0c0v2.3.jpg	 r	 1.865	 GoodTrial	 2.3	 bl
49	 1	 1	 right	 LineStimuli//2.3/stimNo103r11c21v2.3.jpg	 l	 1.412	 GoodTrial	 2.3	 bl
50	 1	 0	 x	 LineStimuli//2.3/stimNo157r0c0v2.3.jpg	 r	 1.705	 GoodTrial	 2.3	 bl
1	 2	 1	 right	 LineStimuli//2.8/stimNo93r9c20v2.8.jpg	 l	 1.481	 GoodTrial	 2.8	 bl
2	 2	 0	 x	 LineStimuli//2.8/stimNo127r0c0v2.8.jpg	 r	 1.943	 GoodTrial	 2.8	 bl
3	 2	 1	 right	 LineStimuli//2.8/stimNo101r12c16v2.8.jpg	 l	 1.464	 GoodTrial	 2.8	 bl
4	 2	 0	 x	 LineStimuli//2.8/stimNo133r0c0v2.8.jpg	 r	 1.968	 GoodTrial	 2.8	 bl
5	 2	 1	 left	 LineStimuli//2.8/stimNo113r9c5v2.8.jpg	 l	 1.523	 GoodTrial	 2.8	 bl
6	 2	 0	 x	 LineStimuli//2.8/stimNo143r0c0v2.8.jpg	 r	 1.594	 GoodTrial	 2.8	 bl
7	 2	 0	 x	 LineStimuli//2.8/stimNo152r0c0v2.8.jpg	 r	 1.616	 GoodTrial	 2.8	 bl
8	 2	 0	 x	 LineStimuli//2.8/stimNo151r0c0v2.8.jpg	 r	 1.725	 GoodTrial	 2.8	 bl
9	 2	 1	 right	 LineStimuli//2.8/stimNo92r14c21v2.8.jpg	 l	 1.556	 GoodTrial	 2.8	 bl
10	 2	 0	 x	 LineStimuli//2.8/stimNo126r0c0v2.8.jpg	 r	 1.836	 GoodTrial	 2.8	 bl
11	 2	 1	 right	 LineStimuli//2.8/stimNo110r7c14v2.8.jpg	 l	 1.435	 GoodTrial	 2.8	 bl
12	 2	 1	 right	 LineStimuli//2.8/stimNo90r13c21v2.8.jpg	 l	 1.793	 GoodTrial	 2.8	 bl
13	 2	 0	 x	 LineStimuli//2.8/stimNo145r0c0v2.8.jpg	 r	 1.564	 GoodTrial	 2.8	 bl
14	 2	 0	 x	 LineStimuli//2.8/stimNo155r0c0v2.8.jpg	 r	 1.613	 GoodTrial	 2.8	 bl
15	 2	 1	 right	 LineStimuli//2.8/stimNo81r8c14v2.8.jpg	 l	 1.403	 GoodTrial	 2.8	 bl
16	 2	 1	 left	 LineStimuli//2.8/stimNo88r15c3v2.8.jpg	 l	 1.734	 GoodTrial	 2.8	 bl
17	 2	 0	 x	 LineStimuli//2.8/stimNo136r0c0v2.8.jpg	 r	 1.735	 GoodTrial	 2.8	 bl
18	 2	 0	 x	 LineStimuli//2.8/stimNo158r0c0v2.8.jpg	 r	 1.630	 GoodTrial	 2.8	 bl
19	 2	 0	 x	 LineStimuli//2.8/stimNo146r0c0v2.8.jpg	 r	 1.664	 GoodTrial	 2.8	 bl
20	 2	 1	 right	 LineStimuli//2.8/stimNo109r6c18v2.8.jpg	 l	 1.424	 GoodTrial	 2.8	 bl
21	 2	 0	 x	 LineStimuli//2.8/stimNo124r0c0v2.8.jpg	 r	 1.700	 GoodTrial	 2.8	 bl
22	 2	 1	 left	 LineStimuli//2.8/stimNo119r8c5v2.8.jpg	 l	 1.494	 GoodTrial	 2.8	 bl
23	 2	 1	 left	 LineStimuli//2.8/stimNo104r8c6v2.8.jpg	 l	 1.405	 GoodTrial	 2.8	 bl
24	 2	 0	 x	 LineStimuli//2.8/stimNo148r0c0v2.8.jpg	 r	 1.729	 GoodTrial	 2.8	 bl
25	 2	 0	 x	 LineStimuli//2.8/stimNo154r0c0v2.8.jpg	 r	 1.794	 GoodTrial	 2.8	 bl
26	 2	 1	 left	 LineStimuli//2.8/stimNo84r3c9v2.8.jpg	 l	 1.544	 GoodTrial	 2.8	 bl
27	 2	 1	 left	 LineStimuli//2.8/stimNo102r3c2v2.8.jpg	 l	 1.473	 GoodTrial	 2.8	 bl
28	 2	 1	 left	 LineStimuli//2.8/stimNo107r5c6v2.8.jpg	 l	 1.401	 GoodTrial	 2.8	 bl
29	 2	 0	 x	 LineStimuli//2.8/stimNo160r0c0v2.8.jpg	 r	 1.693	 GoodTrial	 2.8	 bl
30	 2	 0	 x	 LineStimuli//2.8/stimNo123r0c0v2.8.jpg	 r	 1.724	 GoodTrial	 2.8	 bl
31	 2	 1	 right	 LineStimuli//2.8/stimNo99r9c18v2.8.jpg	 l	 1.555	 GoodTrial	 2.8	 bl
32	 2	 0	 x	 LineStimuli//2.8/stimNo138r0c0v2.8.jpg	 r	 1.671	 GoodTrial	 2.8	 bl
33	 2	 0	 x	 LineStimuli//2.8/stimNo142r0c0v2.8.jpg	 r	 1.707	 GoodTrial	 2.8	 bl
34	 2	 0	 x	 LineStimuli//2.8/stimNo135r0c0v2.8.jpg	 r	 1.697	 GoodTrial	 2.8	 bl
35	 2	 1	 right	 LineStimuli//2.8/stimNo120r8c20v2.8.jpg	 l	 1.418	 GoodTrial	 2.8	 bl
36	 2	 1	 left	 LineStimuli//2.8/stimNo87r11c8v2.8.jpg	 r	 1.601	 GoodTrial	 2.8	 bl
37	 2	 0	 x	 LineStimuli//2.8/stimNo130r0c0v2.8.jpg	 r	 3.356	 GoodTrial	 2.8	 bl
38	 2	 0	 x	 LineStimuli//2.8/stimNo159r0c0v2.8.jpg	 r	 1.990	 GoodTrial	 2.8	 bl
39	 2	 1	 right	 LineStimuli//2.8/stimNo85r4c15v2.8.jpg	 l	 1.406	 GoodTrial	 2.8	 bl
40	 2	 1	 right	 LineStimuli//2.8/stimNo118r5c16v2.8.jpg	 l	 1.656	 GoodTrial	 2.8	 bl
41	 2	 1	 right	 LineStimuli//2.8/stimNo112r13c17v2.8.jpg	 l	 1.499	 GoodTrial	 2.8	 bl
42	 2	 0	 x	 LineStimuli//2.8/stimNo156r0c0v2.8.jpg	 r	 2.468	 GoodTrial	 2.8	 bl
43	 2	 1	 left	 LineStimuli//2.8/stimNo97r11c4v2.8.jpg	 l	 1.863	 GoodTrial	 2.8	 bl
44	 2	 1	 right	 LineStimuli//2.8/stimNo117r11c17v2.8.jpg	 l	 1.480	 GoodTrial	 2.8	 bl
45	 2	 0	 x	 LineStimuli//2.8/stimNo122r0c0v2.8.jpg	 r	 2.268	 GoodTrial	 2.8	 bl
46	 2	 0	 x	 LineStimuli//2.8/stimNo129r0c0v2.8.jpg	 r	 2.413	 GoodTrial	 2.8	 bl
47	 2	 1	 left	 LineStimuli//2.8/stimNo98r15c2v2.8.jpg	 l	 2.106	 GoodTrial	 2.8	 bl
48	 2	 0	 x	 LineStimuli//2.8/stimNo149r0c0v2.8.jpg	 r	 1.760	 GoodTrial	 2.8	 bl
49	 2	 1	 left	 LineStimuli//2.8/stimNo96r6c9v2.8.jpg	 l	 1.516	 GoodTrial	 2.8	 bl
50	 2	 1	 left	 LineStimuli//2.8/stimNo94r13c7v2.8.jpg	 l	 1.682	 GoodTrial	 2.8	 bl
1	 3	 0	 x	 LineStimuli//3.3/stimNo133r0c0v3.3.jpg	 r	 1.852	 GoodTrial	 3.3	 bl
2	 3	 0	 x	 LineStimuli//3.3/stimNo160r0c0v3.3.jpg	 r	 1.689	 GoodTrial	 3.3	 bl
3	 3	 0	 x	 LineStimuli//3.3/stimNo134r0c0v3.3.jpg	 r	 1.590	 GoodTrial	 3.3	 bl
4	 3	 1	 right	 LineStimuli//3.3/stimNo88r9c14v3.3.jpg	 l	 1.482	 GoodTrial	 3.3	 bl
5	 3	 0	 x	 LineStimuli//3.3/stimNo148r0c0v3.3.jpg	 r	 1.691	 GoodTrial	 3.3	 bl
6	 3	 1	 left	 LineStimuli//3.3/stimNo94r14c9v3.3.jpg	 l	 1.638	 GoodTrial	 3.3	 bl
7	 3	 0	 x	 LineStimuli//3.3/stimNo141r0c0v3.3.jpg	 r	 1.636	 GoodTrial	 3.3	 bl
8	 3	 1	 left	 LineStimuli//3.3/stimNo85r6c4v3.3.jpg	 l	 1.528	 GoodTrial	 3.3	 bl
9	 3	 0	 x	 LineStimuli//3.3/stimNo140r0c0v3.3.jpg	 r	 1.556	 GoodTrial	 3.3	 bl
10	 3	 0	 x	 LineStimuli//3.3/stimNo127r0c0v3.3.jpg	 r	 1.821	 GoodTrial	 3.3	 bl
11	 3	 1	 left	 LineStimuli//3.3/stimNo119r15c7v3.3.jpg	 l	 1.577	 GoodTrial	 3.3	 bl
12	 3	 0	 x	 LineStimuli//3.3/stimNo123r0c0v3.3.jpg	 r	 1.572	 GoodTrial	 3.3	 bl
13	 3	 0	 x	 LineStimuli//3.3/stimNo156r0c0v3.3.jpg	 r	 1.811	 GoodTrial	 3.3	 bl
14	 3	 0	 x	 LineStimuli//3.3/stimNo143r0c0v3.3.jpg	 r	 1.732	 GoodTrial	 3.3	 bl
15	 3	 1	 left	 LineStimuli//3.3/stimNo104r4c4v3.3.jpg	 l	 1.528	 GoodTrial	 3.3	 bl
16	 3	 1	 right	 LineStimuli//3.3/stimNo101r7c16v3.3.jpg	 l	 1.457	 GoodTrial	 3.3	 bl
17	 3	 0	 x	 LineStimuli//3.3/stimNo142r0c0v3.3.jpg	 r	 1.580	 GoodTrial	 3.3	 bl
18	 3	 1	 left	 LineStimuli//3.3/stimNo95r15c8v3.3.jpg	 l	 1.903	 GoodTrial	 3.3	 bl
19	 3	 0	 x	 LineStimuli//3.3/stimNo139r0c0v3.3.jpg	 r	 1.711	 GoodTrial	 3.3	 bl
20	 3	 0	 x	 LineStimuli//3.3/stimNo122r0c0v3.3.jpg	 r	 2.048	 GoodTrial	 3.3	 bl
21	 3	 1	 left	 LineStimuli//3.3/stimNo106r9c9v3.3.jpg	 l	 1.501	 GoodTrial	 3.3	 bl
22	 3	 0	 x	 LineStimuli//3.3/stimNo124r0c0v3.3.jpg	 r	 2.110	 GoodTrial	 3.3	 bl
23	 3	 0	 x	 LineStimuli//3.3/stimNo136r0c0v3.3.jpg	 r	 2.810	 GoodTrial	 3.3	 bl
24	 3	 0	 x	 LineStimuli//3.3/stimNo121r0c0v3.3.jpg	 r	 3.472	 GoodTrial	 3.3	 bl
25	 3	 1	 right	 LineStimuli//3.3/stimNo96r8c18v3.3.jpg	 l	 1.490	 GoodTrial	 3.3	 bl
26	 3	 0	 x	 LineStimuli//3.3/stimNo126r0c0v3.3.jpg	 r	 1.740	 GoodTrial	 3.3	 bl
27	 3	 0	 x	 LineStimuli//3.3/stimNo145r0c0v3.3.jpg	 r	 2.244	 GoodTrial	 3.3	 bl
28	 3	 1	 right	 LineStimuli//3.3/stimNo120r8c14v3.3.jpg	 l	 1.435	 GoodTrial	 3.3	 bl
29	 3	 1	 left	 LineStimuli//3.3/stimNo100r3c3v3.3.jpg	 l	 1.800	 GoodTrial	 3.3	 bl
30	 3	 1	 right	 LineStimuli//3.3/stimNo87r15c13v3.3.jpg	 l	 1.888	 GoodTrial	 3.3	 bl
31	 3	 0	 x	 LineStimuli//3.3/stimNo147r0c0v3.3.jpg	 r	 2.000	 GoodTrial	 3.3	 bl
32	 3	 1	 right	 LineStimuli//3.3/stimNo113r13c15v3.3.jpg	 l	 1.551	 GoodTrial	 3.3	 bl
33	 3	 0	 x	 LineStimuli//3.3/stimNo150r0c0v3.3.jpg	 r	 1.915	 GoodTrial	 3.3	 bl
34	 3	 1	 left	 LineStimuli//3.3/stimNo93r3c5v3.3.jpg	 l	 1.525	 GoodTrial	 3.3	 bl
35	 3	 1	 right	 LineStimuli//3.3/stimNo107r2c17v3.3.jpg	 l	 1.586	 GoodTrial	 3.3	 bl
36	 3	 1	 left	 LineStimuli//3.3/stimNo108r13c2v3.3.jpg	 l	 1.684	 GoodTrial	 3.3	 bl
37	 3	 1	 left	 LineStimuli//3.3/stimNo83r8c3v3.3.jpg	 l	 1.424	 GoodTrial	 3.3	 bl
38	 3	 0	 x	 LineStimuli//3.3/stimNo149r0c0v3.3.jpg	 r	 1.888	 GoodTrial	 3.3	 bl
39	 3	 1	 left	 LineStimuli//3.3/stimNo81r15c8v3.3.jpg	 l	 1.751	 GoodTrial	 3.3	 bl
40	 3	 0	 x	 LineStimuli//3.3/stimNo154r0c0v3.3.jpg	 r	 2.245	 GoodTrial	 3.3	 bl
41	 3	 0	 x	 LineStimuli//3.3/stimNo146r0c0v3.3.jpg	 r	 1.946	 GoodTrial	 3.3	 bl
42	 3	 1	 right	 LineStimuli//3.3/stimNo112r5c15v3.3.jpg	 l	 1.443	 GoodTrial	 3.3	 bl
43	 3	 0	 x	 LineStimuli//3.3/stimNo155r0c0v3.3.jpg	 r	 1.874	 GoodTrial	 3.3	 bl
44	 3	 0	 x	 LineStimuli//3.3/stimNo125r0c0v3.3.jpg	 r	 1.976	 GoodTrial	 3.3	 bl
45	 3	 1	 right	 LineStimuli//3.3/stimNo89r5c21v3.3.jpg	 l	 1.465	 GoodTrial	 3.3	 bl
46	 3	 0	 x	 LineStimuli//3.3/stimNo128r0c0v3.3.jpg	 r	 1.719	 GoodTrial	 3.3	 bl
47	 3	 0	 x	 LineStimuli//3.3/stimNo152r0c0v3.3.jpg	 r	 1.924	 GoodTrial	 3.3	 bl
48	 3	 1	 right	 LineStimuli//3.3/stimNo98r4c21v3.3.jpg	 l	 1.557	 GoodTrial	 3.3	 bl
49	 3	 0	 x	 LineStimuli//3.3/stimNo138r0c0v3.3.jpg	 r	 1.728	 GoodTrial	 3.3	 bl
50	 3	 1	 right	 LineStimuli//3.3/stimNo99r6c17v3.3.jpg	 r	 1.500	 GoodTrial	 3.3	 bl
1	 4	 0	 x	 LineStimuli//4.3/stimNo148r0c0v4.3.jpg	 r	 2.537	 GoodTrial	 4.3	 bl
2	 4	 1	 left	 LineStimuli//4.3/stimNo87r3c5v4.3.jpg	 l	 1.619	 GoodTrial	 4.3	 bl
3	 4	 0	 x	 LineStimuli//4.3/stimNo156r0c0v4.3.jpg	 r	 1.658	 GoodTrial	 4.3	 bl
4	 4	 0	 x	 LineStimuli//4.3/stimNo134r0c0v4.3.jpg	 r	 1.799	 GoodTrial	 4.3	 bl
5	 4	 0	 x	 LineStimuli//4.3/stimNo159r0c0v4.3.jpg	 r	 1.725	 GoodTrial	 4.3	 bl
6	 4	 1	 left	 LineStimuli//4.3/stimNo111r10c9v4.3.jpg	 l	 1.512	 GoodTrial	 4.3	 bl
7	 4	 0	 x	 LineStimuli//4.3/stimNo160r0c0v4.3.jpg	 r	 1.579	 GoodTrial	 4.3	 bl
8	 4	 0	 x	 LineStimuli//4.3/stimNo127r0c0v4.3.jpg	 r	 1.808	 GoodTrial	 4.3	 bl
9	 4	 1	 left	 LineStimuli//4.3/stimNo88r10c3v4.3.jpg	 l	 1.420	 GoodTrial	 4.3	 bl
10	 4	 1	 left	 LineStimuli//4.3/stimNo107r2c8v4.3.jpg	 l	 1.557	 GoodTrial	 4.3	 bl
11	 4	 1	 left	 LineStimuli//4.3/stimNo85r3c5v4.3.jpg	 l	 1.457	 GoodTrial	 4.3	 bl
12	 4	 0	 x	 LineStimuli//4.3/stimNo132r0c0v4.3.jpg	 r	 1.812	 GoodTrial	 4.3	 bl
13	 4	 0	 x	 LineStimuli//4.3/stimNo147r0c0v4.3.jpg	 r	 1.678	 GoodTrial	 4.3	 bl
14	 4	 0	 x	 LineStimuli//4.3/stimNo121r0c0v4.3.jpg	 r	 2.152	 GoodTrial	 4.3	 bl
15	 4	 1	 right	 LineStimuli//4.3/stimNo102r10c19v4.3.jpg	 l	 1.399	 GoodTrial	 4.3	 bl
16	 4	 0	 x	 LineStimuli//4.3/stimNo125r0c0v4.3.jpg	 r	 1.669	 GoodTrial	 4.3	 bl
17	 4	 1	 right	 LineStimuli//4.3/stimNo82r7c18v4.3.jpg	 l	 1.369	 GoodTrial	 4.3	 bl
18	 4	 0	 x	 LineStimuli//4.3/stimNo136r0c0v4.3.jpg	 r	 1.546	 GoodTrial	 4.3	 bl
19	 4	 1	 right	 LineStimuli//4.3/stimNo116r5c13v4.3.jpg	 l	 1.390	 GoodTrial	 4.3	 bl
20	 4	 1	 right	 LineStimuli//4.3/stimNo118r11c13v4.3.jpg	 l	 1.517	 GoodTrial	 4.3	 bl
21	 4	 1	 right	 LineStimuli//4.3/stimNo97r6c21v4.3.jpg	 l	 1.489	 GoodTrial	 4.3	 bl
22	 4	 1	 left	 LineStimuli//4.3/stimNo95r11c9v4.3.jpg	 l	 1.460	 GoodTrial	 4.3	 bl
23	 4	 0	 x	 LineStimuli//4.3/stimNo149r0c0v4.3.jpg	 r	 1.572	 GoodTrial	 4.3	 bl
24	 4	 0	 x	 LineStimuli//4.3/stimNo129r0c0v4.3.jpg	 r	 1.671	 GoodTrial	 4.3	 bl
25	 4	 0	 x	 LineStimuli//4.3/stimNo122r0c0v4.3.jpg	 r	 1.680	 GoodTrial	 4.3	 bl
26	 4	 0	 x	 LineStimuli//4.3/stimNo151r0c0v4.3.jpg	 r	 1.576	 GoodTrial	 4.3	 bl
27	 4	 1	 left	 LineStimuli//4.3/stimNo106r8c2v4.3.jpg	 l	 1.461	 GoodTrial	 4.3	 bl
28	 4	 1	 left	 LineStimuli//4.3/stimNo90r10c4v4.3.jpg	 l	 1.433	 GoodTrial	 4.3	 bl
29	 4	 1	 right	 LineStimuli//4.3/stimNo81r10c14v4.3.jpg	 l	 1.469	 GoodTrial	 4.3	 bl
30	 4	 0	 x	 LineStimuli//4.3/stimNo143r0c0v4.3.jpg	 r	 1.559	 GoodTrial	 4.3	 bl
31	 4	 0	 x	 LineStimuli//4.3/stimNo145r0c0v4.3.jpg	 r	 1.640	 GoodTrial	 4.3	 bl
32	 4	 1	 right	 LineStimuli//4.3/stimNo99r14c18v4.3.jpg	 l	 1.446	 GoodTrial	 4.3	 bl
33	 4	 0	 x	 LineStimuli//4.3/stimNo124r0c0v4.3.jpg	 r	 1.560	 GoodTrial	 4.3	 bl
34	 4	 1	 right	 LineStimuli//4.3/stimNo112r10c16v4.3.jpg	 l	 1.562	 GoodTrial	 4.3	 bl
35	 4	 0	 x	 LineStimuli//4.3/stimNo146r0c0v4.3.jpg	 r	 1.639	 GoodTrial	 4.3	 bl
36	 4	 1	 right	 LineStimuli//4.3/stimNo109r15c15v4.3.jpg	 l	 1.428	 GoodTrial	 4.3	 bl
37	 4	 1	 left	 LineStimuli//4.3/stimNo83r4c2v4.3.jpg	 l	 1.490	 GoodTrial	 4.3	 bl
38	 4	 1	 left	 LineStimuli//4.3/stimNo100r8c3v4.3.jpg	 l	 1.472	 GoodTrial	 4.3	 bl
39	 4	 1	 left	 LineStimuli//4.3/stimNo98r3c8v4.3.jpg	 l	 1.451	 GoodTrial	 4.3	 bl
40	 4	 1	 left	 LineStimuli//4.3/stimNo105r14c6v4.3.jpg	 l	 1.619	 GoodTrial	 4.3	 bl
41	 4	 1	 left	 LineStimuli//4.3/stimNo108r5c8v4.3.jpg	 l	 1.461	 GoodTrial	 4.3	 bl
42	 4	 0	 x	 LineStimuli//4.3/stimNo135r0c0v4.3.jpg	 r	 2.124	 GoodTrial	 4.3	 bl
43	 4	 1	 right	 LineStimuli//4.3/stimNo92r2c20v4.3.jpg	 l	 2.089	 GoodTrial	 4.3	 bl
44	 4	 1	 left	 LineStimuli//4.3/stimNo113r11c7v4.3.jpg	 l	 1.478	 GoodTrial	 4.3	 bl
45	 4	 1	 right	 LineStimuli//4.3/stimNo84r15c20v4.3.jpg	 l	 1.531	 GoodTrial	 4.3	 bl
46	 4	 0	 x	 LineStimuli//4.3/stimNo142r0c0v4.3.jpg	 r	 1.863	 GoodTrial	 4.3	 bl
47	 4	 1	 right	 LineStimuli//4.3/stimNo89r3c17v4.3.jpg	 l	 1.460	 GoodTrial	 4.3	 bl
48	 4	 1	 right	 LineStimuli//4.3/stimNo117r10c21v4.3.jpg	 l	 1.579	 GoodTrial	 4.3	 bl
49	 4	 1	 right	 LineStimuli//4.3/stimNo119r12c17v4.3.jpg	 l	 1.539	 GoodTrial	 4.3	 bl
50	 4	 0	 x	 LineStimuli//4.3/stimNo140r0c0v4.3.jpg	 r	 1.777	 GoodTrial	 4.3	 bl
1	 5	 0	 x	 LineStimuli//1.5/stimNo149r0c0v1.5.jpg	 r	 4.466	 GoodTrial	 1.5	 bl
2	 5	 0	 x	 LineStimuli//1.5/stimNo155r0c0v1.5.jpg	 r	 3.180	 GoodTrial	 1.5	 bl
3	 5	 1	 left	 LineStimuli//1.5/stimNo112r9c5v1.5.jpg	 l	 2.504	 GoodTrial	 1.5	 bl
4	 5	 1	 left	 LineStimuli//1.5/stimNo99r10c3v1.5.jpg	 l	 2.394	 GoodTrial	 1.5	 bl
5	 5	 1	 right	 LineStimuli//1.5/stimNo101r5c20v1.5.jpg	 l	 6.122	 GoodTrial	 1.5	 bl
6	 5	 1	 left	 LineStimuli//1.5/stimNo109r8c6v1.5.jpg	 r	 7.763	 GoodTrial	 1.5	 bl
7	 5	 1	 left	 LineStimuli//1.5/stimNo85r2c5v1.5.jpg	 l	 3.436	 GoodTrial	 1.5	 bl
8	 5	 0	 x	 LineStimuli//1.5/stimNo157r0c0v1.5.jpg	 r	 8.423	 GoodTrial	 1.5	 bl
9	 5	 0	 x	 LineStimuli//1.5/stimNo126r0c0v1.5.jpg	 r	 5.990	 GoodTrial	 1.5	 bl
10	 5	 1	 right	 LineStimuli//1.5/stimNo93r14c18v1.5.jpg	 l	 2.710	 GoodTrial	 1.5	 bl
11	 5	 1	 left	 LineStimuli//1.5/stimNo110r7c3v1.5.jpg	 r	 4.714	 GoodTrial	 1.5	 bl
12	 5	 1	 right	 LineStimuli//1.5/stimNo105r3c18v1.5.jpg	 l	 5.117	 GoodTrial	 1.5	 bl
13	 5	 1	 right	 LineStimuli//1.5/stimNo107r2c19v1.5.jpg	 l	 1.857	 GoodTrial	 1.5	 bl
14	 5	 0	 x	 LineStimuli//1.5/stimNo156r0c0v1.5.jpg	 r	 10.713	 GoodTrial	 1.5	 bl
15	 5	 0	 x	 LineStimuli//1.5/stimNo133r0c0v1.5.jpg	 r	 6.915	 GoodTrial	 1.5	 bl
16	 5	 0	 x	 LineStimuli//1.5/stimNo151r0c0v1.5.jpg	 r	 5.637	 GoodTrial	 1.5	 bl
17	 5	 0	 x	 LineStimuli//1.5/stimNo121r0c0v1.5.jpg	 r	 10.047	 GoodTrial	 1.5	 bl
18	 5	 0	 x	 LineStimuli//1.5/stimNo146r0c0v1.5.jpg	 r	 7.011	 GoodTrial	 1.5	 bl
19	 5	 0	 x	 LineStimuli//1.5/stimNo129r0c0v1.5.jpg	 r	 12.447	 GoodTrial	 1.5	 bl
20	 5	 1	 right	 LineStimuli//1.5/stimNo92r6c18v1.5.jpg	 l	 2.178	 GoodTrial	 1.5	 bl
21	 5	 1	 right	 LineStimuli//1.5/stimNo108r13c15v1.5.jpg	 r	 5.286	 GoodTrial	 1.5	 bl
22	 5	 0	 x	 LineStimuli//1.5/stimNo132r0c0v1.5.jpg	 r	 9.028	 GoodTrial	 1.5	 bl
23	 5	 0	 x	 LineStimuli//1.5/stimNo160r0c0v1.5.jpg	 r	 20.753	 GoodTrial	 1.5	 bl
24	 5	 0	 x	 LineStimuli//1.5/stimNo140r0c0v1.5.jpg	 r	 4.794	 GoodTrial	 1.5	 bl
25	 5	 1	 right	 LineStimuli//1.5/stimNo100r6c20v1.5.jpg	 l	 2.272	 GoodTrial	 1.5	 bl
26	 5	 1	 left	 LineStimuli//1.5/stimNo113r4c4v1.5.jpg	 l	 2.496	 GoodTrial	 1.5	 bl
27	 5	 1	 right	 LineStimuli//1.5/stimNo82r11c15v1.5.jpg	 l	 2.646	 GoodTrial	 1.5	 bl
28	 5	 0	 x	 LineStimuli//1.5/stimNo158r0c0v1.5.jpg	 r	 4.037	 GoodTrial	 1.5	 bl
29	 5	 1	 left	 LineStimuli//1.5/stimNo83r12c7v1.5.jpg	 l	 4.097	 GoodTrial	 1.5	 bl
30	 5	 0	 x	 LineStimuli//1.5/stimNo152r0c0v1.5.jpg	 r	 5.509	 GoodTrial	 1.5	 bl
31	 5	 0	 x	 LineStimuli//1.5/stimNo142r0c0v1.5.jpg	 r	 6.350	 GoodTrial	 1.5	 bl
32	 5	 1	 right	 LineStimuli//1.5/stimNo115r14c18v1.5.jpg	 l	 1.781	 GoodTrial	 1.5	 bl
33	 5	 0	 x	 LineStimuli//1.5/stimNo154r0c0v1.5.jpg	 r	 3.154	 GoodTrial	 1.5	 bl
34	 5	 1	 left	 LineStimuli//1.5/stimNo97r15c6v1.5.jpg	 r	 10.069	 GoodTrial	 1.5	 bl
35	 5	 1	 right	 LineStimuli//1.5/stimNo98r8c21v1.5.jpg	 l	 1.914	 GoodTrial	 1.5	 bl
36	 5	 1	 right	 LineStimuli//1.5/stimNo118r9c20v1.5.jpg	 l	 1.704	 GoodTrial	 1.5	 bl
37	 5	 0	 x	 LineStimuli//1.5/stimNo135r0c0v1.5.jpg	 r	 4.355	 GoodTrial	 1.5	 bl
38	 5	 0	 x	 LineStimuli//1.5/stimNo159r0c0v1.5.jpg	 r	 5.549	 GoodTrial	 1.5	 bl
39	 5	 1	 left	 LineStimuli//1.5/stimNo88r6c7v1.5.jpg	 l	 2.624	 GoodTrial	 1.5	 bl
40	 5	 1	 right	 LineStimuli//1.5/stimNo81r6c17v1.5.jpg	 l	 1.945	 GoodTrial	 1.5	 bl
41	 5	 1	 right	 LineStimuli//1.5/stimNo111r7c17v1.5.jpg	 l	 1.622	 GoodTrial	 1.5	 bl
42	 5	 1	 right	 LineStimuli//1.5/stimNo103r13c17v1.5.jpg	 r	 2.552	 GoodTrial	 1.5	 bl
43	 5	 1	 left	 LineStimuli//1.5/stimNo89r8c9v1.5.jpg	 l	 1.746	 GoodTrial	 1.5	 bl
44	 5	 0	 x	 LineStimuli//1.5/stimNo134r0c0v1.5.jpg	 l	 3.249	 GoodTrial	 1.5	 bl
45	 5	 1	 left	 LineStimuli//1.5/stimNo87r12c5v1.5.jpg	 r	 5.440	 GoodTrial	 1.5	 bl
46	 5	 0	 x	 LineStimuli//1.5/stimNo128r0c0v1.5.jpg	 l	 8.337	 GoodTrial	 1.5	 bl
47	 5	 0	 x	 LineStimuli//1.5/stimNo123r0c0v1.5.jpg	 l	 2.197	 GoodTrial	 1.5	 bl
48	 5	 0	 x	 LineStimuli//1.5/stimNo130r0c0v1.5.jpg	 r	 4.397	 GoodTrial	 1.5	 bl
49	 5	 0	 x	 LineStimuli//1.5/stimNo148r0c0v1.5.jpg	 r	 3.787	 GoodTrial	 1.5	 bl
50	 5	 1	 right	 LineStimuli//1.5/stimNo95r6c14v1.5.jpg	 l	 5.120	 GoodTrial	 1.5	 bl
1	 6	 0	 x	 LineStimuli//3.8/stimNo152r0c0v3.8.jpg	 r	 3.140	 GoodTrial	 3.8	 bl
2	 6	 0	 x	 LineStimuli//3.8/stimNo149r0c0v3.8.jpg	 r	 2.165	 GoodTrial	 3.8	 bl
3	 6	 1	 left	 LineStimuli//3.8/stimNo97r15c9v3.8.jpg	 l	 1.811	 GoodTrial	 3.8	 bl
4	 6	 1	 right	 LineStimuli//3.8/stimNo114r10c14v3.8.jpg	 l	 1.423	 GoodTrial	 3.8	 bl
5	 6	 0	 x	 LineStimuli//3.8/stimNo154r0c0v3.8.jpg	 r	 2.029	 GoodTrial	 3.8	 bl
6	 6	 0	 x	 LineStimuli//3.8/stimNo122r0c0v3.8.jpg	 r	 1.661	 GoodTrial	 3.8	 bl
7	 6	 0	 x	 LineStimuli//3.8/stimNo151r0c0v3.8.jpg	 r	 1.591	 GoodTrial	 3.8	 bl
8	 6	 0	 x	 LineStimuli//3.8/stimNo148r0c0v3.8.jpg	 r	 1.895	 GoodTrial	 3.8	 bl
9	 6	 0	 x	 LineStimuli//3.8/stimNo140r0c0v3.8.jpg	 r	 1.671	 GoodTrial	 3.8	 bl
10	 6	 1	 right	 LineStimuli//3.8/stimNo101r12c17v3.8.jpg	 l	 1.513	 GoodTrial	 3.8	 bl
11	 6	 0	 x	 LineStimuli//3.8/stimNo143r0c0v3.8.jpg	 r	 1.702	 GoodTrial	 3.8	 bl
12	 6	 0	 x	 LineStimuli//3.8/stimNo137r0c0v3.8.jpg	 r	 1.867	 GoodTrial	 3.8	 bl
13	 6	 0	 x	 LineStimuli//3.8/stimNo125r0c0v3.8.jpg	 r	 1.604	 GoodTrial	 3.8	 bl
14	 6	 1	 left	 LineStimuli//3.8/stimNo106r9c9v3.8.jpg	 l	 1.623	 GoodTrial	 3.8	 bl
15	 6	 0	 x	 LineStimuli//3.8/stimNo145r0c0v3.8.jpg	 r	 1.561	 GoodTrial	 3.8	 bl
16	 6	 1	 left	 LineStimuli//3.8/stimNo93r8c2v3.8.jpg	 l	 1.479	 GoodTrial	 3.8	 bl
17	 6	 1	 left	 LineStimuli//3.8/stimNo119r9c8v3.8.jpg	 l	 1.534	 GoodTrial	 3.8	 bl
18	 6	 0	 x	 LineStimuli//3.8/stimNo124r0c0v3.8.jpg	 r	 1.601	 GoodTrial	 3.8	 bl
19	 6	 1	 left	 LineStimuli//3.8/stimNo120r5c3v3.8.jpg	 l	 1.403	 GoodTrial	 3.8	 bl
20	 6	 0	 x	 LineStimuli//3.8/stimNo156r0c0v3.8.jpg	 r	 1.653	 GoodTrial	 3.8	 bl
21	 6	 1	 right	 LineStimuli//3.8/stimNo82r9c21v3.8.jpg	 l	 1.441	 GoodTrial	 3.8	 bl
22	 6	 1	 left	 LineStimuli//3.8/stimNo118r4c8v3.8.jpg	 l	 1.434	 GoodTrial	 3.8	 bl
23	 6	 0	 x	 LineStimuli//3.8/stimNo133r0c0v3.8.jpg	 r	 1.527	 GoodTrial	 3.8	 bl
24	 6	 1	 left	 LineStimuli//3.8/stimNo104r12c8v3.8.jpg	 l	 1.415	 GoodTrial	 3.8	 bl
25	 6	 0	 x	 LineStimuli//3.8/stimNo130r0c0v3.8.jpg	 r	 1.624	 GoodTrial	 3.8	 bl
26	 6	 0	 x	 LineStimuli//3.8/stimNo153r0c0v3.8.jpg	 r	 1.642	 GoodTrial	 3.8	 bl
27	 6	 0	 x	 LineStimuli//3.8/stimNo155r0c0v3.8.jpg	 r	 1.510	 GoodTrial	 3.8	 bl
28	 6	 0	 x	 LineStimuli//3.8/stimNo121r0c0v3.8.jpg	 r	 1.641	 GoodTrial	 3.8	 bl
29	 6	 1	 right	 LineStimuli//3.8/stimNo87r6c13v3.8.jpg	 l	 1.419	 GoodTrial	 3.8	 bl
30	 6	 1	 left	 LineStimuli//3.8/stimNo108r3c6v3.8.jpg	 l	 1.453	 GoodTrial	 3.8	 bl
31	 6	 1	 right	 LineStimuli//3.8/stimNo91r10c16v3.8.jpg	 l	 1.464	 GoodTrial	 3.8	 bl
32	 6	 1	 left	 LineStimuli//3.8/stimNo115r14c10v3.8.jpg	 l	 1.470	 GoodTrial	 3.8	 bl
33	 6	 0	 x	 LineStimuli//3.8/stimNo141r0c0v3.8.jpg	 r	 1.674	 GoodTrial	 3.8	 bl
34	 6	 0	 x	 LineStimuli//3.8/stimNo147r0c0v3.8.jpg	 r	 1.638	 GoodTrial	 3.8	 bl
35	 6	 0	 x	 LineStimuli//3.8/stimNo129r0c0v3.8.jpg	 r	 1.625	 GoodTrial	 3.8	 bl
36	 6	 1	 right	 LineStimuli//3.8/stimNo99r2c13v3.8.jpg	 l	 1.461	 GoodTrial	 3.8	 bl
37	 6	 0	 x	 LineStimuli//3.8/stimNo146r0c0v3.8.jpg	 r	 1.529	 GoodTrial	 3.8	 bl
38	 6	 0	 x	 LineStimuli//3.8/stimNo136r0c0v3.8.jpg	 r	 1.601	 GoodTrial	 3.8	 bl
39	 6	 1	 right	 LineStimuli//3.8/stimNo111r15c20v3.8.jpg	 l	 1.528	 GoodTrial	 3.8	 bl
40	 6	 0	 x	 LineStimuli//3.8/stimNo139r0c0v3.8.jpg	 r	 1.798	 GoodTrial	 3.8	 bl
41	 6	 0	 x	 LineStimuli//3.8/stimNo144r0c0v3.8.jpg	 r	 1.557	 GoodTrial	 3.8	 bl
42	 6	 1	 right	 LineStimuli//3.8/stimNo107r9c18v3.8.jpg	 l	 1.542	 GoodTrial	 3.8	 bl
43	 6	 0	 x	 LineStimuli//3.8/stimNo158r0c0v3.8.jpg	 r	 1.677	 GoodTrial	 3.8	 bl
44	 6	 1	 left	 LineStimuli//3.8/stimNo98r2c9v3.8.jpg	 l	 1.484	 GoodTrial	 3.8	 bl
45	 6	 0	 x	 LineStimuli//3.8/stimNo142r0c0v3.8.jpg	 r	 1.491	 GoodTrial	 3.8	 bl
46	 6	 1	 right	 LineStimuli//3.8/stimNo85r3c13v3.8.jpg	 l	 2.299	 GoodTrial	 3.8	 bl
47	 6	 1	 right	 LineStimuli//3.8/stimNo84r9c19v3.8.jpg	 l	 1.472	 GoodTrial	 3.8	 bl
48	 6	 0	 x	 LineStimuli//3.8/stimNo132r0c0v3.8.jpg	 r	 1.593	 GoodTrial	 3.8	 bl
49	 6	 0	 x	 LineStimuli//3.8/stimNo160r0c0v3.8.jpg	 r	 1.562	 GoodTrial	 3.8	 bl
50	 6	 1	 right	 LineStimuli//3.8/stimNo92r6c21v3.8.jpg	 l	 1.412	 GoodTrial	 3.8	 bl
1	 7	 1	 left	 LineStimuli//1.8/stimNo98r15c5v1.8.jpg	 r	 3.162	 GoodTrial	 1.8	 bl
2	 7	 0	 x	 LineStimuli//1.8/stimNo121r0c0v1.8.jpg	 r	 4.844	 GoodTrial	 1.8	 bl
3	 7	 1	 left	 LineStimuli//1.8/stimNo113r6c7v1.8.jpg	 l	 1.732	 GoodTrial	 1.8	 bl
4	 7	 0	 x	 LineStimuli//1.8/stimNo131r0c0v1.8.jpg	 r	 2.777	 GoodTrial	 1.8	 bl
5	 7	 1	 right	 LineStimuli//1.8/stimNo117r10c16v1.8.jpg	 l	 1.641	 GoodTrial	 1.8	 bl
6	 7	 0	 x	 LineStimuli//1.8/stimNo133r0c0v1.8.jpg	 r	 2.146	 GoodTrial	 1.8	 bl
7	 7	 1	 right	 LineStimuli//1.8/stimNo104r3c21v1.8.jpg	 l	 1.656	 GoodTrial	 1.8	 bl
8	 7	 0	 x	 LineStimuli//1.8/stimNo139r0c0v1.8.jpg	 r	 2.319	 GoodTrial	 1.8	 bl
9	 7	 1	 right	 LineStimuli//1.8/stimNo102r14c17v1.8.jpg	 l	 1.602	 GoodTrial	 1.8	 bl
10	 7	 1	 right	 LineStimuli//1.8/stimNo119r3c21v1.8.jpg	 l	 1.604	 GoodTrial	 1.8	 bl
11	 7	 1	 left	 LineStimuli//1.8/stimNo81r6c8v1.8.jpg	 l	 1.964	 GoodTrial	 1.8	 bl
12	 7	 1	 left	 LineStimuli//1.8/stimNo120r14c9v1.8.jpg	 l	 2.413	 GoodTrial	 1.8	 bl
13	 7	 0	 x	 LineStimuli//1.8/stimNo142r0c0v1.8.jpg	 r	 3.908	 GoodTrial	 1.8	 bl
14	 7	 1	 right	 LineStimuli//1.8/stimNo82r7c18v1.8.jpg	 l	 1.535	 GoodTrial	 1.8	 bl
15	 7	 0	 x	 LineStimuli//1.8/stimNo141r0c0v1.8.jpg	 r	 2.443	 GoodTrial	 1.8	 bl
16	 7	 0	 x	 LineStimuli//1.8/stimNo158r0c0v1.8.jpg	 r	 2.748	 GoodTrial	 1.8	 bl
17	 7	 1	 left	 LineStimuli//1.8/stimNo103r15c10v1.8.jpg	 l	 2.150	 GoodTrial	 1.8	 bl
18	 7	 1	 left	 LineStimuli//1.8/stimNo94r13c8v1.8.jpg	 l	 1.939	 GoodTrial	 1.8	 bl
19	 7	 0	 x	 LineStimuli//1.8/stimNo135r0c0v1.8.jpg	 r	 1.936	 GoodTrial	 1.8	 bl
20	 7	 0	 x	 LineStimuli//1.8/stimNo122r0c0v1.8.jpg	 r	 1.879	 GoodTrial	 1.8	 bl
21	 7	 0	 x	 LineStimuli//1.8/stimNo159r0c0v1.8.jpg	 r	 2.954	 GoodTrial	 1.8	 bl
22	 7	 1	 right	 LineStimuli//1.8/stimNo108r9c21v1.8.jpg	 l	 1.463	 GoodTrial	 1.8	 bl
23	 7	 1	 right	 LineStimuli//1.8/stimNo111r4c21v1.8.jpg	 l	 1.474	 GoodTrial	 1.8	 bl
24	 7	 0	 x	 LineStimuli//1.8/stimNo125r0c0v1.8.jpg	 r	 1.768	 GoodTrial	 1.8	 bl
25	 7	 0	 x	 LineStimuli//1.8/stimNo149r0c0v1.8.jpg	 r	 1.994	 GoodTrial	 1.8	 bl
26	 7	 0	 x	 LineStimuli//1.8/stimNo155r0c0v1.8.jpg	 r	 1.821	 GoodTrial	 1.8	 bl
27	 7	 1	 right	 LineStimuli//1.8/stimNo84r11c21v1.8.jpg	 l	 1.591	 GoodTrial	 1.8	 bl
28	 7	 1	 left	 LineStimuli//1.8/stimNo116r4c7v1.8.jpg	 l	 1.575	 GoodTrial	 1.8	 bl
29	 7	 0	 x	 LineStimuli//1.8/stimNo150r0c0v1.8.jpg	 r	 2.182	 GoodTrial	 1.8	 bl
30	 7	 0	 x	 LineStimuli//1.8/stimNo151r0c0v1.8.jpg	 r	 2.501	 GoodTrial	 1.8	 bl
31	 7	 1	 right	 LineStimuli//1.8/stimNo90r15c13v1.8.jpg	 l	 1.764	 GoodTrial	 1.8	 bl
32	 7	 1	 right	 LineStimuli//1.8/stimNo92r10c18v1.8.jpg	 l	 1.645	 GoodTrial	 1.8	 bl
33	 7	 0	 x	 LineStimuli//1.8/stimNo154r0c0v1.8.jpg	 r	 2.431	 GoodTrial	 1.8	 bl
34	 7	 1	 left	 LineStimuli//1.8/stimNo88r15c9v1.8.jpg	 l	 1.666	 GoodTrial	 1.8	 bl
35	 7	 0	 x	 LineStimuli//1.8/stimNo140r0c0v1.8.jpg	 r	 2.010	 GoodTrial	 1.8	 bl
36	 7	 0	 x	 LineStimuli//1.8/stimNo134r0c0v1.8.jpg	 r	 1.606	 GoodTrial	 1.8	 bl
37	 7	 1	 right	 LineStimuli//1.8/stimNo97r15c18v1.8.jpg	 l	 1.541	 GoodTrial	 1.8	 bl
38	 7	 0	 x	 LineStimuli//1.8/stimNo146r0c0v1.8.jpg	 r	 2.773	 GoodTrial	 1.8	 bl
39	 7	 1	 left	 LineStimuli//1.8/stimNo86r14c4v1.8.jpg	 l	 1.760	 GoodTrial	 1.8	 bl
40	 7	 0	 x	 LineStimuli//1.8/stimNo145r0c0v1.8.jpg	 r	 2.193	 GoodTrial	 1.8	 bl
41	 7	 1	 left	 LineStimuli//1.8/stimNo115r5c9v1.8.jpg	 l	 1.522	 GoodTrial	 1.8	 bl
42	 7	 0	 x	 LineStimuli//1.8/stimNo126r0c0v1.8.jpg	 r	 2.270	 GoodTrial	 1.8	 bl
43	 7	 0	 x	 LineStimuli//1.8/stimNo148r0c0v1.8.jpg	 r	 2.696	 GoodTrial	 1.8	 bl
44	 7	 0	 x	 LineStimuli//1.8/stimNo129r0c0v1.8.jpg	 r	 3.312	 GoodTrial	 1.8	 bl
45	 7	 0	 x	 LineStimuli//1.8/stimNo138r0c0v1.8.jpg	 r	 2.715	 GoodTrial	 1.8	 bl
46	 7	 1	 left	 LineStimuli//1.8/stimNo107r5c4v1.8.jpg	 l	 3.102	 GoodTrial	 1.8	 bl
47	 7	 1	 left	 LineStimuli//1.8/stimNo85r13c2v1.8.jpg	 l	 2.014	 GoodTrial	 1.8	 bl
48	 7	 1	 right	 LineStimuli//1.8/stimNo109r7c17v1.8.jpg	 l	 1.594	 GoodTrial	 1.8	 bl
49	 7	 1	 left	 LineStimuli//1.8/stimNo110r4c7v1.8.jpg	 l	 1.606	 GoodTrial	 1.8	 bl
50	 7	 0	 x	 LineStimuli//1.8/stimNo127r0c0v1.8.jpg	 r	 2.591	 GoodTrial	 1.8	 bl
