Trial	Block	Target_pr	Target_side	Name	Key	RT	Message	Block_Type	Condition
1	 1	 0	 x	 LineStimuli//1.5/stimNo157r0c0v1.5.jpg	 r	 9.960	 GoodTrial	 1.5	 bl
2	 1	 1	 right	 LineStimuli//1.5/stimNo103r13c17v1.5.jpg	 r	 8.458	 GoodTrial	 1.5	 bl
3	 1	 0	 x	 LineStimuli//1.5/stimNo133r0c0v1.5.jpg	 r	 13.420	 GoodTrial	 1.5	 bl
4	 1	 1	 left	 LineStimuli//1.5/stimNo89r8c9v1.5.jpg	 l	 2.168	 GoodTrial	 1.5	 bl
5	 1	 1	 left	 LineStimuli//1.5/stimNo96r15c4v1.5.jpg	 r	 7.546	 GoodTrial	 1.5	 bl
6	 1	 0	 x	 LineStimuli//1.5/stimNo135r0c0v1.5.jpg	 r	 14.774	 GoodTrial	 1.5	 bl
7	 1	 1	 right	 LineStimuli//1.5/stimNo90r3c15v1.5.jpg	 l	 5.361	 GoodTrial	 1.5	 bl
8	 1	 1	 right	 LineStimuli//1.5/stimNo111r7c17v1.5.jpg	 r	 14.100	 GoodTrial	 1.5	 bl
9	 1	 0	 x	 LineStimuli//1.5/stimNo153r0c0v1.5.jpg	 r	 12.844	 GoodTrial	 1.5	 bl
10	 1	 1	 left	 LineStimuli//1.5/stimNo109r8c6v1.5.jpg	 r	 9.238	 GoodTrial	 1.5	 bl
11	 1	 0	 x	 LineStimuli//1.5/stimNo155r0c0v1.5.jpg	 r	 17.956	 GoodTrial	 1.5	 bl
12	 1	 0	 x	 LineStimuli//1.5/stimNo156r0c0v1.5.jpg	 r	 13.298	 GoodTrial	 1.5	 bl
13	 1	 0	 x	 LineStimuli//1.5/stimNo143r0c0v1.5.jpg	 r	 19.679	 GoodTrial	 1.5	 bl
14	 1	 0	 x	 LineStimuli//1.5/stimNo136r0c0v1.5.jpg	 r	 18.354	 GoodTrial	 1.5	 bl
15	 1	 1	 left	 LineStimuli//1.5/stimNo120r14c2v1.5.jpg	 r	 21.246	 GoodTrial	 1.5	 bl
16	 1	 1	 left	 LineStimuli//1.5/stimNo83r12c7v1.5.jpg	 r	 19.211	 GoodTrial	 1.5	 bl
17	 1	 1	 left	 LineStimuli//1.5/stimNo102r7c6v1.5.jpg	 r	 12.180	 GoodTrial	 1.5	 bl
18	 1	 0	 x	 LineStimuli//1.5/stimNo128r0c0v1.5.jpg	 r	 14.704	 GoodTrial	 1.5	 bl
19	 1	 1	 right	 LineStimuli//1.5/stimNo84r3c18v1.5.jpg	 r	 17.886	 GoodTrial	 1.5	 bl
20	 1	 1	 right	 LineStimuli//1.5/stimNo107r2c19v1.5.jpg	 r	 16.872	 GoodTrial	 1.5	 bl
21	 1	 1	 right	 LineStimuli//1.5/stimNo93r14c18v1.5.jpg	 l	 18.824	 GoodTrial	 1.5	 bl
22	 1	 0	 x	 LineStimuli//1.5/stimNo138r0c0v1.5.jpg	 r	 19.678	 GoodTrial	 1.5	 bl
23	 1	 0	 x	 LineStimuli//1.5/stimNo132r0c0v1.5.jpg	 r	 22.268	 GoodTrial	 1.5	 bl
24	 1	 0	 x	 LineStimuli//1.5/stimNo149r0c0v1.5.jpg	 r	 13.272	 GoodTrial	 1.5	 bl
25	 1	 0	 x	 LineStimuli//1.5/stimNo124r0c0v1.5.jpg	 r	 21.502	 GoodTrial	 1.5	 bl
26	 1	 0	 x	 LineStimuli//1.5/stimNo158r0c0v1.5.jpg	 r	 18.150	 GoodTrial	 1.5	 bl
27	 1	 1	 right	 LineStimuli//1.5/stimNo101r5c20v1.5.jpg	 r	 17.117	 GoodTrial	 1.5	 bl
28	 1	 0	 x	 LineStimuli//1.5/stimNo160r0c0v1.5.jpg	 r	 26.520	 GoodTrial	 1.5	 bl
29	 1	 1	 left	 LineStimuli//1.5/stimNo87r12c5v1.5.jpg	 r	 18.434	 GoodTrial	 1.5	 bl
30	 1	 0	 x	 LineStimuli//1.5/stimNo122r0c0v1.5.jpg	 r	 30.466	 GoodTrial	 1.5	 bl
31	 1	 0	 x	 LineStimuli//1.5/stimNo129r0c0v1.5.jpg	 r	 16.599	 GoodTrial	 1.5	 bl
32	 1	 0	 x	 LineStimuli//1.5/stimNo159r0c0v1.5.jpg	 r	 25.556	 GoodTrial	 1.5	 bl
33	 1	 0	 x	 LineStimuli//1.5/stimNo154r0c0v1.5.jpg	 r	 25.060	 GoodTrial	 1.5	 bl
34	 1	 1	 left	 LineStimuli//1.5/stimNo116r7c7v1.5.jpg	 r	 20.293	 GoodTrial	 1.5	 bl
35	 1	 1	 right	 LineStimuli//1.5/stimNo81r6c17v1.5.jpg	 r	 20.978	 GoodTrial	 1.5	 bl
36	 1	 1	 right	 LineStimuli//1.5/stimNo104r5c18v1.5.jpg	 r	 20.070	 GoodTrial	 1.5	 bl
37	 1	 1	 right	 LineStimuli//1.5/stimNo98r8c21v1.5.jpg	 l	 7.632	 GoodTrial	 1.5	 bl
38	 1	 0	 x	 LineStimuli//1.5/stimNo151r0c0v1.5.jpg	 r	 22.218	 GoodTrial	 1.5	 bl
39	 1	 0	 x	 LineStimuli//1.5/stimNo148r0c0v1.5.jpg	 r	 20.471	 GoodTrial	 1.5	 bl
40	 1	 0	 x	 LineStimuli//1.5/stimNo140r0c0v1.5.jpg	 r	 22.767	 GoodTrial	 1.5	 bl
41	 1	 1	 right	 LineStimuli//1.5/stimNo118r9c20v1.5.jpg	 r	 19.210	 GoodTrial	 1.5	 bl
42	 1	 1	 left	 LineStimuli//1.5/stimNo106r3c7v1.5.jpg	 r	 12.940	 GoodTrial	 1.5	 bl
43	 1	 1	 right	 LineStimuli//1.5/stimNo100r6c20v1.5.jpg	 l	 20.683	 GoodTrial	 1.5	 bl
44	 1	 1	 left	 LineStimuli//1.5/stimNo88r6c7v1.5.jpg	 l	 9.614	 GoodTrial	 1.5	 bl
45	 1	 0	 x	 LineStimuli//1.5/stimNo125r0c0v1.5.jpg	 r	 21.504	 GoodTrial	 1.5	 bl
46	 1	 1	 left	 LineStimuli//1.5/stimNo112r9c5v1.5.jpg	 l	 12.151	 GoodTrial	 1.5	 bl
47	 1	 0	 x	 LineStimuli//1.5/stimNo139r0c0v1.5.jpg	 r	 29.839	 GoodTrial	 1.5	 bl
48	 1	 1	 left	 LineStimuli//1.5/stimNo94r10c6v1.5.jpg	 r	 18.369	 GoodTrial	 1.5	 bl
49	 1	 1	 left	 LineStimuli//1.5/stimNo117r7c8v1.5.jpg	 l	 5.608	 GoodTrial	 1.5	 bl
50	 1	 0	 x	 LineStimuli//1.5/stimNo127r0c0v1.5.jpg	 r	 20.161	 GoodTrial	 1.5	 bl
1	 2	 1	 left	 LineStimuli//4.3/stimNo113r11c7v4.3.jpg	 l	 2.208	 GoodTrial	 4.3	 bl
2	 2	 0	 x	 LineStimuli//4.3/stimNo144r0c0v4.3.jpg	 r	 5.841	 GoodTrial	 4.3	 bl
3	 2	 0	 x	 LineStimuli//4.3/stimNo134r0c0v4.3.jpg	 r	 5.537	 GoodTrial	 4.3	 bl
4	 2	 1	 left	 LineStimuli//4.3/stimNo85r3c5v4.3.jpg	 l	 2.099	 GoodTrial	 4.3	 bl
5	 2	 1	 right	 LineStimuli//4.3/stimNo117r10c21v4.3.jpg	 l	 2.127	 GoodTrial	 4.3	 bl
6	 2	 1	 left	 LineStimuli//4.3/stimNo110r6c7v4.3.jpg	 l	 2.518	 GoodTrial	 4.3	 bl
7	 2	 1	 right	 LineStimuli//4.3/stimNo99r14c18v4.3.jpg	 l	 2.327	 GoodTrial	 4.3	 bl
8	 2	 0	 x	 LineStimuli//4.3/stimNo129r0c0v4.3.jpg	 r	 3.142	 GoodTrial	 4.3	 bl
9	 2	 0	 x	 LineStimuli//4.3/stimNo132r0c0v4.3.jpg	 r	 3.714	 GoodTrial	 4.3	 bl
10	 2	 1	 left	 LineStimuli//4.3/stimNo90r10c4v4.3.jpg	 l	 2.106	 GoodTrial	 4.3	 bl
11	 2	 0	 x	 LineStimuli//4.3/stimNo159r0c0v4.3.jpg	 r	 2.794	 GoodTrial	 4.3	 bl
12	 2	 1	 left	 LineStimuli//4.3/stimNo111r10c9v4.3.jpg	 l	 2.009	 GoodTrial	 4.3	 bl
13	 2	 0	 x	 LineStimuli//4.3/stimNo130r0c0v4.3.jpg	 r	 2.894	 GoodTrial	 4.3	 bl
14	 2	 0	 x	 LineStimuli//4.3/stimNo128r0c0v4.3.jpg	 r	 2.924	 GoodTrial	 4.3	 bl
15	 2	 0	 x	 LineStimuli//4.3/stimNo140r0c0v4.3.jpg	 r	 4.861	 GoodTrial	 4.3	 bl
16	 2	 0	 x	 LineStimuli//4.3/stimNo145r0c0v4.3.jpg	 r	 3.320	 GoodTrial	 4.3	 bl
17	 2	 1	 right	 LineStimuli//4.3/stimNo120r8c18v4.3.jpg	 l	 2.022	 GoodTrial	 4.3	 bl
18	 2	 1	 right	 LineStimuli//4.3/stimNo91r9c13v4.3.jpg	 l	 2.063	 GoodTrial	 4.3	 bl
19	 2	 1	 right	 LineStimuli//4.3/stimNo109r15c15v4.3.jpg	 l	 2.133	 GoodTrial	 4.3	 bl
20	 2	 1	 right	 LineStimuli//4.3/stimNo81r10c14v4.3.jpg	 l	 1.862	 GoodTrial	 4.3	 bl
21	 2	 0	 x	 LineStimuli//4.3/stimNo123r0c0v4.3.jpg	 r	 3.360	 GoodTrial	 4.3	 bl
22	 2	 0	 x	 LineStimuli//4.3/stimNo149r0c0v4.3.jpg	 r	 3.631	 GoodTrial	 4.3	 bl
23	 2	 1	 left	 LineStimuli//4.3/stimNo105r14c6v4.3.jpg	 l	 2.103	 GoodTrial	 4.3	 bl
24	 2	 1	 left	 LineStimuli//4.3/stimNo95r11c9v4.3.jpg	 l	 2.229	 GoodTrial	 4.3	 bl
25	 2	 0	 x	 LineStimuli//4.3/stimNo147r0c0v4.3.jpg	 r	 2.505	 GoodTrial	 4.3	 bl
26	 2	 0	 x	 LineStimuli//4.3/stimNo148r0c0v4.3.jpg	 r	 2.275	 GoodTrial	 4.3	 bl
27	 2	 1	 right	 LineStimuli//4.3/stimNo114r10c15v4.3.jpg	 l	 2.132	 GoodTrial	 4.3	 bl
28	 2	 0	 x	 LineStimuli//4.3/stimNo121r0c0v4.3.jpg	 r	 2.301	 GoodTrial	 4.3	 bl
29	 2	 0	 x	 LineStimuli//4.3/stimNo152r0c0v4.3.jpg	 r	 2.210	 GoodTrial	 4.3	 bl
30	 2	 0	 x	 LineStimuli//4.3/stimNo122r0c0v4.3.jpg	 r	 2.348	 GoodTrial	 4.3	 bl
31	 2	 1	 right	 LineStimuli//4.3/stimNo92r2c20v4.3.jpg	 l	 1.934	 GoodTrial	 4.3	 bl
32	 2	 1	 left	 LineStimuli//4.3/stimNo106r8c2v4.3.jpg	 l	 2.072	 GoodTrial	 4.3	 bl
33	 2	 1	 left	 LineStimuli//4.3/stimNo88r10c3v4.3.jpg	 l	 1.998	 GoodTrial	 4.3	 bl
34	 2	 1	 right	 LineStimuli//4.3/stimNo119r12c17v4.3.jpg	 x	 0.384	 EARLY_RESPONSE	 4.3	 bl
35	 2	 1	 left	 LineStimuli//4.3/stimNo103r10c4v4.3.jpg	 l	 1.954	 GoodTrial	 4.3	 bl
36	 2	 1	 left	 LineStimuli//4.3/stimNo86r7c3v4.3.jpg	 l	 1.617	 GoodTrial	 4.3	 bl
37	 2	 1	 left	 LineStimuli//4.3/stimNo107r2c8v4.3.jpg	 l	 1.670	 GoodTrial	 4.3	 bl
38	 2	 0	 x	 LineStimuli//4.3/stimNo150r0c0v4.3.jpg	 r	 1.969	 GoodTrial	 4.3	 bl
39	 2	 0	 x	 LineStimuli//4.3/stimNo142r0c0v4.3.jpg	 r	 1.740	 GoodTrial	 4.3	 bl
40	 2	 0	 x	 LineStimuli//4.3/stimNo127r0c0v4.3.jpg	 r	 2.231	 GoodTrial	 4.3	 bl
41	 2	 1	 left	 LineStimuli//4.3/stimNo100r8c3v4.3.jpg	 l	 1.852	 GoodTrial	 4.3	 bl
42	 2	 0	 x	 LineStimuli//4.3/stimNo160r0c0v4.3.jpg	 r	 2.474	 GoodTrial	 4.3	 bl
43	 2	 0	 x	 LineStimuli//4.3/stimNo153r0c0v4.3.jpg	 r	 3.493	 GoodTrial	 4.3	 bl
44	 2	 0	 x	 LineStimuli//4.3/stimNo151r0c0v4.3.jpg	 r	 3.080	 GoodTrial	 4.3	 bl
45	 2	 0	 x	 LineStimuli//4.3/stimNo136r0c0v4.3.jpg	 r	 3.896	 GoodTrial	 4.3	 bl
46	 2	 0	 x	 LineStimuli//4.3/stimNo138r0c0v4.3.jpg	 r	 2.331	 GoodTrial	 4.3	 bl
47	 2	 0	 x	 LineStimuli//4.3/stimNo155r0c0v4.3.jpg	 r	 5.387	 GoodTrial	 4.3	 bl
48	 2	 0	 x	 LineStimuli//4.3/stimNo141r0c0v4.3.jpg	 r	 1.914	 GoodTrial	 4.3	 bl
49	 2	 1	 right	 LineStimuli//4.3/stimNo94r12c13v4.3.jpg	 l	 2.188	 GoodTrial	 4.3	 bl
50	 2	 0	 x	 LineStimuli//4.3/stimNo131r0c0v4.3.jpg	 r	 3.841	 GoodTrial	 4.3	 bl
1	 3	 0	 x	 LineStimuli//2.8/stimNo142r0c0v2.8.jpg	 r	 9.768	 GoodTrial	 2.8	 bl
2	 3	 0	 x	 LineStimuli//2.8/stimNo139r0c0v2.8.jpg	 r	 4.186	 GoodTrial	 2.8	 bl
3	 3	 0	 x	 LineStimuli//2.8/stimNo130r0c0v2.8.jpg	 r	 3.256	 GoodTrial	 2.8	 bl
4	 3	 1	 right	 LineStimuli//2.8/stimNo115r9c14v2.8.jpg	 l	 2.026	 GoodTrial	 2.8	 bl
5	 3	 0	 x	 LineStimuli//2.8/stimNo149r0c0v2.8.jpg	 r	 4.321	 GoodTrial	 2.8	 bl
6	 3	 1	 left	 LineStimuli//2.8/stimNo96r6c9v2.8.jpg	 l	 1.788	 GoodTrial	 2.8	 bl
7	 3	 0	 x	 LineStimuli//2.8/stimNo159r0c0v2.8.jpg	 r	 2.378	 GoodTrial	 2.8	 bl
8	 3	 0	 x	 LineStimuli//2.8/stimNo151r0c0v2.8.jpg	 r	 5.532	 GoodTrial	 2.8	 bl
9	 3	 0	 x	 LineStimuli//2.8/stimNo132r0c0v2.8.jpg	 r	 9.095	 GoodTrial	 2.8	 bl
10	 3	 0	 x	 LineStimuli//2.8/stimNo135r0c0v2.8.jpg	 r	 4.364	 GoodTrial	 2.8	 bl
11	 3	 0	 x	 LineStimuli//2.8/stimNo147r0c0v2.8.jpg	 r	 2.772	 GoodTrial	 2.8	 bl
12	 3	 0	 x	 LineStimuli//2.8/stimNo156r0c0v2.8.jpg	 r	 5.742	 GoodTrial	 2.8	 bl
13	 3	 0	 x	 LineStimuli//2.8/stimNo131r0c0v2.8.jpg	 r	 2.347	 GoodTrial	 2.8	 bl
14	 3	 1	 right	 LineStimuli//2.8/stimNo111r9c15v2.8.jpg	 l	 1.764	 GoodTrial	 2.8	 bl
15	 3	 0	 x	 LineStimuli//2.8/stimNo146r0c0v2.8.jpg	 r	 19.776	 GoodTrial	 2.8	 bl
16	 3	 1	 right	 LineStimuli//2.8/stimNo93r9c20v2.8.jpg	 l	 1.624	 GoodTrial	 2.8	 bl
17	 3	 1	 left	 LineStimuli//2.8/stimNo84r3c9v2.8.jpg	 l	 2.052	 GoodTrial	 2.8	 bl
18	 3	 1	 left	 LineStimuli//2.8/stimNo113r9c5v2.8.jpg	 l	 1.846	 GoodTrial	 2.8	 bl
19	 3	 0	 x	 LineStimuli//2.8/stimNo136r0c0v2.8.jpg	 r	 4.251	 GoodTrial	 2.8	 bl
20	 3	 0	 x	 LineStimuli//2.8/stimNo144r0c0v2.8.jpg	 r	 4.114	 GoodTrial	 2.8	 bl
21	 3	 1	 right	 LineStimuli//2.8/stimNo106r13c20v2.8.jpg	 l	 2.102	 GoodTrial	 2.8	 bl
22	 3	 1	 left	 LineStimuli//2.8/stimNo104r8c6v2.8.jpg	 l	 1.595	 GoodTrial	 2.8	 bl
23	 3	 0	 x	 LineStimuli//2.8/stimNo148r0c0v2.8.jpg	 r	 3.878	 GoodTrial	 2.8	 bl
24	 3	 0	 x	 LineStimuli//2.8/stimNo145r0c0v2.8.jpg	 r	 4.346	 GoodTrial	 2.8	 bl
25	 3	 0	 x	 LineStimuli//2.8/stimNo129r0c0v2.8.jpg	 r	 4.605	 GoodTrial	 2.8	 bl
26	 3	 0	 x	 LineStimuli//2.8/stimNo157r0c0v2.8.jpg	 r	 4.460	 GoodTrial	 2.8	 bl
27	 3	 1	 right	 LineStimuli//2.8/stimNo85r4c15v2.8.jpg	 l	 1.945	 GoodTrial	 2.8	 bl
28	 3	 1	 left	 LineStimuli//2.8/stimNo102r3c2v2.8.jpg	 l	 2.644	 GoodTrial	 2.8	 bl
29	 3	 1	 right	 LineStimuli//2.8/stimNo118r5c16v2.8.jpg	 l	 2.081	 GoodTrial	 2.8	 bl
30	 3	 1	 left	 LineStimuli//2.8/stimNo87r11c8v2.8.jpg	 l	 1.586	 GoodTrial	 2.8	 bl
31	 3	 0	 x	 LineStimuli//2.8/stimNo138r0c0v2.8.jpg	 r	 3.045	 GoodTrial	 2.8	 bl
32	 3	 1	 left	 LineStimuli//2.8/stimNo98r15c2v2.8.jpg	 l	 2.045	 GoodTrial	 2.8	 bl
33	 3	 0	 x	 LineStimuli//2.8/stimNo127r0c0v2.8.jpg	 r	 3.116	 GoodTrial	 2.8	 bl
34	 3	 0	 x	 LineStimuli//2.8/stimNo141r0c0v2.8.jpg	 r	 3.384	 GoodTrial	 2.8	 bl
35	 3	 1	 left	 LineStimuli//2.8/stimNo89r12c4v2.8.jpg	 l	 1.550	 GoodTrial	 2.8	 bl
36	 3	 1	 right	 LineStimuli//2.8/stimNo81r8c14v2.8.jpg	 r	 3.194	 GoodTrial	 2.8	 bl
37	 3	 1	 left	 LineStimuli//2.8/stimNo97r11c4v2.8.jpg	 l	 1.581	 GoodTrial	 2.8	 bl
38	 3	 1	 right	 LineStimuli//2.8/stimNo95r9c18v2.8.jpg	 l	 1.645	 GoodTrial	 2.8	 bl
39	 3	 1	 left	 LineStimuli//2.8/stimNo86r15c6v2.8.jpg	 l	 1.574	 GoodTrial	 2.8	 bl
40	 3	 1	 right	 LineStimuli//2.8/stimNo103r3c19v2.8.jpg	 l	 1.583	 GoodTrial	 2.8	 bl
41	 3	 0	 x	 LineStimuli//2.8/stimNo140r0c0v2.8.jpg	 r	 3.306	 GoodTrial	 2.8	 bl
42	 3	 1	 right	 LineStimuli//2.8/stimNo90r13c21v2.8.jpg	 l	 1.710	 GoodTrial	 2.8	 bl
43	 3	 1	 right	 LineStimuli//2.8/stimNo112r13c17v2.8.jpg	 l	 1.570	 GoodTrial	 2.8	 bl
44	 3	 1	 right	 LineStimuli//2.8/stimNo92r14c21v2.8.jpg	 l	 1.649	 GoodTrial	 2.8	 bl
45	 3	 1	 left	 LineStimuli//2.8/stimNo88r15c3v2.8.jpg	 l	 1.465	 GoodTrial	 2.8	 bl
46	 3	 1	 left	 LineStimuli//2.8/stimNo107r5c6v2.8.jpg	 l	 1.564	 GoodTrial	 2.8	 bl
47	 3	 1	 left	 LineStimuli//2.8/stimNo94r13c7v2.8.jpg	 l	 1.822	 GoodTrial	 2.8	 bl
48	 3	 0	 x	 LineStimuli//2.8/stimNo150r0c0v2.8.jpg	 r	 2.416	 GoodTrial	 2.8	 bl
49	 3	 0	 x	 LineStimuli//2.8/stimNo153r0c0v2.8.jpg	 r	 2.634	 GoodTrial	 2.8	 bl
50	 3	 0	 x	 LineStimuli//2.8/stimNo158r0c0v2.8.jpg	 r	 2.453	 GoodTrial	 2.8	 bl
1	 4	 0	 x	 LineStimuli//1.8/stimNo131r0c0v1.8.jpg	 r	 4.793	 GoodTrial	 1.8	 bl
2	 4	 1	 right	 LineStimuli//1.8/stimNo92r10c18v1.8.jpg	 r	 5.725	 GoodTrial	 1.8	 bl
3	 4	 0	 x	 LineStimuli//1.8/stimNo143r0c0v1.8.jpg	 r	 5.525	 GoodTrial	 1.8	 bl
4	 4	 0	 x	 LineStimuli//1.8/stimNo146r0c0v1.8.jpg	 r	 8.378	 GoodTrial	 1.8	 bl
5	 4	 1	 right	 LineStimuli//1.8/stimNo90r15c13v1.8.jpg	 l	 8.607	 GoodTrial	 1.8	 bl
6	 4	 0	 x	 LineStimuli//1.8/stimNo122r0c0v1.8.jpg	 r	 8.561	 GoodTrial	 1.8	 bl
7	 4	 0	 x	 LineStimuli//1.8/stimNo158r0c0v1.8.jpg	 r	 11.415	 GoodTrial	 1.8	 bl
8	 4	 0	 x	 LineStimuli//1.8/stimNo156r0c0v1.8.jpg	 r	 7.708	 GoodTrial	 1.8	 bl
9	 4	 0	 x	 LineStimuli//1.8/stimNo141r0c0v1.8.jpg	 r	 6.699	 GoodTrial	 1.8	 bl
10	 4	 1	 right	 LineStimuli//1.8/stimNo104r3c21v1.8.jpg	 r	 9.309	 GoodTrial	 1.8	 bl
11	 4	 0	 x	 LineStimuli//1.8/stimNo138r0c0v1.8.jpg	 r	 5.060	 GoodTrial	 1.8	 bl
12	 4	 1	 left	 LineStimuli//1.8/stimNo86r14c4v1.8.jpg	 r	 5.177	 GoodTrial	 1.8	 bl
13	 4	 1	 left	 LineStimuli//1.8/stimNo91r14c4v1.8.jpg	 l	 4.055	 GoodTrial	 1.8	 bl
14	 4	 0	 x	 LineStimuli//1.8/stimNo152r0c0v1.8.jpg	 r	 4.137	 GoodTrial	 1.8	 bl
15	 4	 0	 x	 LineStimuli//1.8/stimNo149r0c0v1.8.jpg	 r	 5.780	 GoodTrial	 1.8	 bl
16	 4	 1	 right	 LineStimuli//1.8/stimNo83r6c13v1.8.jpg	 l	 4.439	 GoodTrial	 1.8	 bl
17	 4	 1	 right	 LineStimuli//1.8/stimNo114r8c13v1.8.jpg	 l	 3.486	 GoodTrial	 1.8	 bl
18	 4	 1	 left	 LineStimuli//1.8/stimNo98r15c5v1.8.jpg	 l	 2.578	 GoodTrial	 1.8	 bl
19	 4	 1	 right	 LineStimuli//1.8/stimNo119r3c21v1.8.jpg	 l	 5.342	 GoodTrial	 1.8	 bl
20	 4	 1	 left	 LineStimuli//1.8/stimNo105r6c5v1.8.jpg	 l	 9.931	 GoodTrial	 1.8	 bl
21	 4	 0	 x	 LineStimuli//1.8/stimNo128r0c0v1.8.jpg	 r	 5.924	 GoodTrial	 1.8	 bl
22	 4	 0	 x	 LineStimuli//1.8/stimNo157r0c0v1.8.jpg	 r	 6.305	 GoodTrial	 1.8	 bl
23	 4	 1	 left	 LineStimuli//1.8/stimNo113r6c7v1.8.jpg	 r	 7.640	 GoodTrial	 1.8	 bl
24	 4	 0	 x	 LineStimuli//1.8/stimNo142r0c0v1.8.jpg	 r	 7.906	 GoodTrial	 1.8	 bl
25	 4	 1	 right	 LineStimuli//1.8/stimNo97r15c18v1.8.jpg	 r	 5.264	 GoodTrial	 1.8	 bl
26	 4	 1	 right	 LineStimuli//1.8/stimNo82r7c18v1.8.jpg	 l	 4.910	 GoodTrial	 1.8	 bl
27	 4	 0	 x	 LineStimuli//1.8/stimNo130r0c0v1.8.jpg	 r	 4.452	 GoodTrial	 1.8	 bl
28	 4	 1	 left	 LineStimuli//1.8/stimNo94r13c8v1.8.jpg	 l	 1.887	 GoodTrial	 1.8	 bl
29	 4	 0	 x	 LineStimuli//1.8/stimNo133r0c0v1.8.jpg	 r	 5.052	 GoodTrial	 1.8	 bl
30	 4	 1	 left	 LineStimuli//1.8/stimNo95r4c9v1.8.jpg	 l	 2.272	 GoodTrial	 1.8	 bl
31	 4	 0	 x	 LineStimuli//1.8/stimNo144r0c0v1.8.jpg	 r	 6.375	 GoodTrial	 1.8	 bl
32	 4	 0	 x	 LineStimuli//1.8/stimNo124r0c0v1.8.jpg	 r	 8.542	 GoodTrial	 1.8	 bl
33	 4	 0	 x	 LineStimuli//1.8/stimNo123r0c0v1.8.jpg	 r	 7.129	 GoodTrial	 1.8	 bl
34	 4	 0	 x	 LineStimuli//1.8/stimNo139r0c0v1.8.jpg	 r	 7.248	 GoodTrial	 1.8	 bl
35	 4	 0	 x	 LineStimuli//1.8/stimNo154r0c0v1.8.jpg	 r	 6.022	 GoodTrial	 1.8	 bl
36	 4	 0	 x	 LineStimuli//1.8/stimNo137r0c0v1.8.jpg	 r	 5.446	 GoodTrial	 1.8	 bl
37	 4	 1	 right	 LineStimuli//1.8/stimNo111r4c21v1.8.jpg	 r	 5.553	 GoodTrial	 1.8	 bl
38	 4	 0	 x	 LineStimuli//1.8/stimNo132r0c0v1.8.jpg	 r	 5.614	 GoodTrial	 1.8	 bl
39	 4	 0	 x	 LineStimuli//1.8/stimNo129r0c0v1.8.jpg	 r	 4.007	 GoodTrial	 1.8	 bl
40	 4	 0	 x	 LineStimuli//1.8/stimNo134r0c0v1.8.jpg	 r	 6.128	 GoodTrial	 1.8	 bl
41	 4	 1	 left	 LineStimuli//1.8/stimNo85r13c2v1.8.jpg	 l	 2.121	 GoodTrial	 1.8	 bl
42	 4	 0	 x	 LineStimuli//1.8/stimNo125r0c0v1.8.jpg	 r	 5.121	 GoodTrial	 1.8	 bl
43	 4	 1	 left	 LineStimuli//1.8/stimNo81r6c8v1.8.jpg	 l	 2.007	 GoodTrial	 1.8	 bl
44	 4	 0	 x	 LineStimuli//1.8/stimNo150r0c0v1.8.jpg	 r	 4.152	 GoodTrial	 1.8	 bl
45	 4	 0	 x	 LineStimuli//1.8/stimNo155r0c0v1.8.jpg	 r	 5.253	 GoodTrial	 1.8	 bl
46	 4	 1	 left	 LineStimuli//1.8/stimNo115r5c9v1.8.jpg	 l	 1.654	 GoodTrial	 1.8	 bl
47	 4	 1	 right	 LineStimuli//1.8/stimNo99r12c16v1.8.jpg	 l	 1.729	 GoodTrial	 1.8	 bl
48	 4	 1	 right	 LineStimuli//1.8/stimNo102r14c17v1.8.jpg	 l	 1.597	 GoodTrial	 1.8	 bl
49	 4	 0	 x	 LineStimuli//1.8/stimNo153r0c0v1.8.jpg	 r	 3.713	 GoodTrial	 1.8	 bl
50	 4	 1	 left	 LineStimuli//1.8/stimNo96r13c2v1.8.jpg	 l	 1.905	 GoodTrial	 1.8	 bl
1	 5	 0	 x	 LineStimuli//3.8/stimNo123r0c0v3.8.jpg	 x	 0.768	 EARLY_RESPONSE	 3.8	 bl
2	 5	 1	 right	 LineStimuli//3.8/stimNo112r12c16v3.8.jpg	 l	 3.308	 GoodTrial	 3.8	 bl
3	 5	 1	 right	 LineStimuli//3.8/stimNo82r9c21v3.8.jpg	 l	 2.016	 GoodTrial	 3.8	 bl
4	 5	 1	 left	 LineStimuli//3.8/stimNo103r11c7v3.8.jpg	 l	 1.878	 GoodTrial	 3.8	 bl
5	 5	 0	 x	 LineStimuli//3.8/stimNo133r0c0v3.8.jpg	 r	 2.642	 GoodTrial	 3.8	 bl
6	 5	 0	 x	 LineStimuli//3.8/stimNo135r0c0v3.8.jpg	 r	 2.630	 GoodTrial	 3.8	 bl
7	 5	 0	 x	 LineStimuli//3.8/stimNo150r0c0v3.8.jpg	 r	 1.952	 GoodTrial	 3.8	 bl
8	 5	 0	 x	 LineStimuli//3.8/stimNo125r0c0v3.8.jpg	 r	 2.080	 GoodTrial	 3.8	 bl
9	 5	 0	 x	 LineStimuli//3.8/stimNo159r0c0v3.8.jpg	 r	 2.334	 GoodTrial	 3.8	 bl
10	 5	 0	 x	 LineStimuli//3.8/stimNo138r0c0v3.8.jpg	 r	 2.185	 GoodTrial	 3.8	 bl
11	 5	 0	 x	 LineStimuli//3.8/stimNo137r0c0v3.8.jpg	 r	 2.302	 GoodTrial	 3.8	 bl
12	 5	 1	 right	 LineStimuli//3.8/stimNo84r9c19v3.8.jpg	 l	 1.557	 GoodTrial	 3.8	 bl
13	 5	 0	 x	 LineStimuli//3.8/stimNo146r0c0v3.8.jpg	 r	 1.804	 GoodTrial	 3.8	 bl
14	 5	 1	 right	 LineStimuli//3.8/stimNo95r5c21v3.8.jpg	 l	 1.574	 GoodTrial	 3.8	 bl
15	 5	 0	 x	 LineStimuli//3.8/stimNo129r0c0v3.8.jpg	 r	 2.850	 GoodTrial	 3.8	 bl
16	 5	 1	 right	 LineStimuli//3.8/stimNo94r6c17v3.8.jpg	 l	 3.048	 GoodTrial	 3.8	 bl
17	 5	 1	 left	 LineStimuli//3.8/stimNo113r14c9v3.8.jpg	 l	 1.870	 GoodTrial	 3.8	 bl
18	 5	 0	 x	 LineStimuli//3.8/stimNo144r0c0v3.8.jpg	 r	 5.172	 GoodTrial	 3.8	 bl
19	 5	 1	 left	 LineStimuli//3.8/stimNo115r14c10v3.8.jpg	 l	 2.115	 GoodTrial	 3.8	 bl
20	 5	 1	 right	 LineStimuli//3.8/stimNo92r6c21v3.8.jpg	 l	 2.015	 GoodTrial	 3.8	 bl
21	 5	 0	 x	 LineStimuli//3.8/stimNo151r0c0v3.8.jpg	 r	 2.525	 GoodTrial	 3.8	 bl
22	 5	 1	 left	 LineStimuli//3.8/stimNo109r11c8v3.8.jpg	 l	 1.506	 GoodTrial	 3.8	 bl
23	 5	 1	 left	 LineStimuli//3.8/stimNo93r8c2v3.8.jpg	 l	 1.748	 GoodTrial	 3.8	 bl
24	 5	 0	 x	 LineStimuli//3.8/stimNo155r0c0v3.8.jpg	 r	 2.227	 GoodTrial	 3.8	 bl
25	 5	 0	 x	 LineStimuli//3.8/stimNo152r0c0v3.8.jpg	 r	 9.071	 GoodTrial	 3.8	 bl
26	 5	 1	 left	 LineStimuli//3.8/stimNo120r5c3v3.8.jpg	 l	 1.655	 GoodTrial	 3.8	 bl
27	 5	 1	 right	 LineStimuli//3.8/stimNo102r10c17v3.8.jpg	 l	 1.840	 GoodTrial	 3.8	 bl
28	 5	 1	 right	 LineStimuli//3.8/stimNo101r12c17v3.8.jpg	 l	 1.531	 GoodTrial	 3.8	 bl
29	 5	 1	 right	 LineStimuli//3.8/stimNo114r10c14v3.8.jpg	 l	 1.112	 GoodTrial	 3.8	 bl
30	 5	 1	 right	 LineStimuli//3.8/stimNo81r3c21v3.8.jpg	 l	 1.605	 GoodTrial	 3.8	 bl
31	 5	 0	 x	 LineStimuli//3.8/stimNo145r0c0v3.8.jpg	 r	 2.396	 GoodTrial	 3.8	 bl
32	 5	 1	 right	 LineStimuli//3.8/stimNo90r8c17v3.8.jpg	 l	 2.034	 GoodTrial	 3.8	 bl
33	 5	 0	 x	 LineStimuli//3.8/stimNo142r0c0v3.8.jpg	 r	 4.086	 GoodTrial	 3.8	 bl
34	 5	 0	 x	 LineStimuli//3.8/stimNo136r0c0v3.8.jpg	 r	 2.574	 GoodTrial	 3.8	 bl
35	 5	 0	 x	 LineStimuli//3.8/stimNo149r0c0v3.8.jpg	 r	 2.328	 GoodTrial	 3.8	 bl
36	 5	 0	 x	 LineStimuli//3.8/stimNo140r0c0v3.8.jpg	 r	 2.333	 GoodTrial	 3.8	 bl
37	 5	 1	 right	 LineStimuli//3.8/stimNo117r6c17v3.8.jpg	 l	 1.507	 GoodTrial	 3.8	 bl
38	 5	 0	 x	 LineStimuli//3.8/stimNo158r0c0v3.8.jpg	 r	 2.071	 GoodTrial	 3.8	 bl
39	 5	 1	 left	 LineStimuli//3.8/stimNo100r13c6v3.8.jpg	 l	 1.575	 GoodTrial	 3.8	 bl
40	 5	 1	 left	 LineStimuli//3.8/stimNo89r10c7v3.8.jpg	 l	 1.529	 GoodTrial	 3.8	 bl
41	 5	 1	 right	 LineStimuli//3.8/stimNo88r10c17v3.8.jpg	 x	 0.832	 EARLY_RESPONSE	 3.8	 bl
42	 5	 1	 left	 LineStimuli//3.8/stimNo104r12c8v3.8.jpg	 l	 1.997	 GoodTrial	 3.8	 bl
43	 5	 1	 left	 LineStimuli//3.8/stimNo105r2c6v3.8.jpg	 l	 2.105	 GoodTrial	 3.8	 bl
44	 5	 1	 left	 LineStimuli//3.8/stimNo118r4c8v3.8.jpg	 l	 1.478	 GoodTrial	 3.8	 bl
45	 5	 0	 x	 LineStimuli//3.8/stimNo124r0c0v3.8.jpg	 r	 4.128	 GoodTrial	 3.8	 bl
46	 5	 0	 x	 LineStimuli//3.8/stimNo154r0c0v3.8.jpg	 r	 6.479	 GoodTrial	 3.8	 bl
47	 5	 0	 x	 LineStimuli//3.8/stimNo131r0c0v3.8.jpg	 r	 3.160	 GoodTrial	 3.8	 bl
48	 5	 0	 x	 LineStimuli//3.8/stimNo148r0c0v3.8.jpg	 r	 3.325	 GoodTrial	 3.8	 bl
49	 5	 0	 x	 LineStimuli//3.8/stimNo157r0c0v3.8.jpg	 r	 2.926	 GoodTrial	 3.8	 bl
50	 5	 0	 x	 LineStimuli//3.8/stimNo156r0c0v3.8.jpg	 r	 7.464	 GoodTrial	 3.8	 bl
1	 6	 0	 x	 LineStimuli//3.3/stimNo145r0c0v3.3.jpg	 r	 2.359	 GoodTrial	 3.3	 bl
2	 6	 0	 x	 LineStimuli//3.3/stimNo150r0c0v3.3.jpg	 r	 2.885	 GoodTrial	 3.3	 bl
3	 6	 1	 right	 LineStimuli//3.3/stimNo97r6c13v3.3.jpg	 l	 1.750	 GoodTrial	 3.3	 bl
4	 6	 1	 left	 LineStimuli//3.3/stimNo85r6c4v3.3.jpg	 l	 1.542	 GoodTrial	 3.3	 bl
5	 6	 1	 right	 LineStimuli//3.3/stimNo114r11c21v3.3.jpg	 l	 1.796	 GoodTrial	 3.3	 bl
6	 6	 0	 x	 LineStimuli//3.3/stimNo155r0c0v3.3.jpg	 r	 2.741	 GoodTrial	 3.3	 bl
7	 6	 1	 right	 LineStimuli//3.3/stimNo120r8c14v3.3.jpg	 l	 1.514	 GoodTrial	 3.3	 bl
8	 6	 1	 right	 LineStimuli//3.3/stimNo102r13c13v3.3.jpg	 l	 2.422	 GoodTrial	 3.3	 bl
9	 6	 0	 x	 LineStimuli//3.3/stimNo131r0c0v3.3.jpg	 r	 3.980	 GoodTrial	 3.3	 bl
10	 6	 0	 x	 LineStimuli//3.3/stimNo141r0c0v3.3.jpg	 r	 3.054	 GoodTrial	 3.3	 bl
11	 6	 0	 x	 LineStimuli//3.3/stimNo136r0c0v3.3.jpg	 r	 3.446	 GoodTrial	 3.3	 bl
12	 6	 0	 x	 LineStimuli//3.3/stimNo128r0c0v3.3.jpg	 r	 3.518	 GoodTrial	 3.3	 bl
13	 6	 1	 left	 LineStimuli//3.3/stimNo106r9c9v3.3.jpg	 l	 1.605	 GoodTrial	 3.3	 bl
14	 6	 1	 left	 LineStimuli//3.3/stimNo94r14c9v3.3.jpg	 l	 2.494	 GoodTrial	 3.3	 bl
15	 6	 0	 x	 LineStimuli//3.3/stimNo132r0c0v3.3.jpg	 r	 2.413	 GoodTrial	 3.3	 bl
16	 6	 0	 x	 LineStimuli//3.3/stimNo143r0c0v3.3.jpg	 r	 2.226	 GoodTrial	 3.3	 bl
17	 6	 0	 x	 LineStimuli//3.3/stimNo125r0c0v3.3.jpg	 r	 2.333	 GoodTrial	 3.3	 bl
18	 6	 1	 left	 LineStimuli//3.3/stimNo81r15c8v3.3.jpg	 l	 1.999	 GoodTrial	 3.3	 bl
19	 6	 0	 x	 LineStimuli//3.3/stimNo152r0c0v3.3.jpg	 r	 2.405	 GoodTrial	 3.3	 bl
20	 6	 0	 x	 LineStimuli//3.3/stimNo159r0c0v3.3.jpg	 r	 2.463	 GoodTrial	 3.3	 bl
21	 6	 0	 x	 LineStimuli//3.3/stimNo137r0c0v3.3.jpg	 r	 4.416	 GoodTrial	 3.3	 bl
22	 6	 1	 right	 LineStimuli//3.3/stimNo88r9c14v3.3.jpg	 l	 1.947	 GoodTrial	 3.3	 bl
23	 6	 0	 x	 LineStimuli//3.3/stimNo156r0c0v3.3.jpg	 r	 4.832	 GoodTrial	 3.3	 bl
24	 6	 1	 left	 LineStimuli//3.3/stimNo100r3c3v3.3.jpg	 l	 1.726	 GoodTrial	 3.3	 bl
25	 6	 0	 x	 LineStimuli//3.3/stimNo121r0c0v3.3.jpg	 r	 5.722	 GoodTrial	 3.3	 bl
26	 6	 0	 x	 LineStimuli//3.3/stimNo133r0c0v3.3.jpg	 r	 2.809	 GoodTrial	 3.3	 bl
27	 6	 1	 left	 LineStimuli//3.3/stimNo92r10c7v3.3.jpg	 l	 1.700	 GoodTrial	 3.3	 bl
28	 6	 0	 x	 LineStimuli//3.3/stimNo154r0c0v3.3.jpg	 r	 3.058	 GoodTrial	 3.3	 bl
29	 6	 1	 left	 LineStimuli//3.3/stimNo93r3c5v3.3.jpg	 l	 1.856	 GoodTrial	 3.3	 bl
30	 6	 0	 x	 LineStimuli//3.3/stimNo140r0c0v3.3.jpg	 r	 2.319	 GoodTrial	 3.3	 bl
31	 6	 0	 x	 LineStimuli//3.3/stimNo126r0c0v3.3.jpg	 r	 2.042	 GoodTrial	 3.3	 bl
32	 6	 0	 x	 LineStimuli//3.3/stimNo130r0c0v3.3.jpg	 r	 2.242	 GoodTrial	 3.3	 bl
33	 6	 1	 right	 LineStimuli//3.3/stimNo96r8c18v3.3.jpg	 l	 1.495	 GoodTrial	 3.3	 bl
34	 6	 1	 right	 LineStimuli//3.3/stimNo91r12c16v3.3.jpg	 l	 1.688	 GoodTrial	 3.3	 bl
35	 6	 1	 left	 LineStimuli//3.3/stimNo117r2c5v3.3.jpg	 l	 2.343	 GoodTrial	 3.3	 bl
36	 6	 1	 right	 LineStimuli//3.3/stimNo118r3c16v3.3.jpg	 l	 2.255	 GoodTrial	 3.3	 bl
37	 6	 1	 left	 LineStimuli//3.3/stimNo119r15c7v3.3.jpg	 l	 1.524	 GoodTrial	 3.3	 bl
38	 6	 0	 x	 LineStimuli//3.3/stimNo127r0c0v3.3.jpg	 r	 2.660	 GoodTrial	 3.3	 bl
39	 6	 1	 left	 LineStimuli//3.3/stimNo108r13c2v3.3.jpg	 l	 1.514	 GoodTrial	 3.3	 bl
40	 6	 0	 x	 LineStimuli//3.3/stimNo149r0c0v3.3.jpg	 r	 2.669	 GoodTrial	 3.3	 bl
41	 6	 0	 x	 LineStimuli//3.3/stimNo160r0c0v3.3.jpg	 r	 4.359	 GoodTrial	 3.3	 bl
42	 6	 1	 left	 LineStimuli//3.3/stimNo104r4c4v3.3.jpg	 l	 1.514	 GoodTrial	 3.3	 bl
43	 6	 0	 x	 LineStimuli//3.3/stimNo147r0c0v3.3.jpg	 r	 2.595	 GoodTrial	 3.3	 bl
44	 6	 0	 x	 LineStimuli//3.3/stimNo129r0c0v3.3.jpg	 r	 3.488	 GoodTrial	 3.3	 bl
45	 6	 0	 x	 LineStimuli//3.3/stimNo135r0c0v3.3.jpg	 r	 4.161	 GoodTrial	 3.3	 bl
46	 6	 0	 x	 LineStimuli//3.3/stimNo134r0c0v3.3.jpg	 r	 2.056	 GoodTrial	 3.3	 bl
47	 6	 1	 right	 LineStimuli//3.3/stimNo105r7c20v3.3.jpg	 l	 1.503	 GoodTrial	 3.3	 bl
48	 6	 0	 x	 LineStimuli//3.3/stimNo122r0c0v3.3.jpg	 r	 2.523	 GoodTrial	 3.3	 bl
49	 6	 1	 left	 LineStimuli//3.3/stimNo115r3c4v3.3.jpg	 l	 1.511	 GoodTrial	 3.3	 bl
50	 6	 1	 left	 LineStimuli//3.3/stimNo95r15c8v3.3.jpg	 l	 2.185	 GoodTrial	 3.3	 bl
1	 7	 1	 right	 LineStimuli//2.3/stimNo120r4c17v2.3.jpg	 l	 1.855	 GoodTrial	 2.3	 bl
2	 7	 0	 x	 LineStimuli//2.3/stimNo151r0c0v2.3.jpg	 r	 4.420	 GoodTrial	 2.3	 bl
3	 7	 0	 x	 LineStimuli//2.3/stimNo131r0c0v2.3.jpg	 r	 3.655	 GoodTrial	 2.3	 bl
4	 7	 1	 right	 LineStimuli//2.3/stimNo84r15c14v2.3.jpg	 r	 2.008	 GoodTrial	 2.3	 bl
5	 7	 1	 right	 LineStimuli//2.3/stimNo85r4c15v2.3.jpg	 x	 0.672	 EARLY_RESPONSE	 2.3	 bl
6	 7	 1	 right	 LineStimuli//2.3/stimNo92r10c17v2.3.jpg	 l	 1.853	 GoodTrial	 2.3	 bl
7	 7	 0	 x	 LineStimuli//2.3/stimNo143r0c0v2.3.jpg	 r	 4.832	 GoodTrial	 2.3	 bl
8	 7	 1	 left	 LineStimuli//2.3/stimNo86r8c9v2.3.jpg	 l	 2.869	 GoodTrial	 2.3	 bl
9	 7	 1	 right	 LineStimuli//2.3/stimNo90r14c21v2.3.jpg	 l	 2.116	 GoodTrial	 2.3	 bl
10	 7	 1	 right	 LineStimuli//2.3/stimNo98r12c21v2.3.jpg	 l	 1.616	 GoodTrial	 2.3	 bl
11	 7	 0	 x	 LineStimuli//2.3/stimNo134r0c0v2.3.jpg	 r	 2.218	 GoodTrial	 2.3	 bl
12	 7	 0	 x	 LineStimuli//2.3/stimNo139r0c0v2.3.jpg	 r	 3.679	 GoodTrial	 2.3	 bl
13	 7	 0	 x	 LineStimuli//2.3/stimNo126r0c0v2.3.jpg	 r	 4.273	 GoodTrial	 2.3	 bl
14	 7	 0	 x	 LineStimuli//2.3/stimNo124r0c0v2.3.jpg	 r	 6.897	 GoodTrial	 2.3	 bl
15	 7	 0	 x	 LineStimuli//2.3/stimNo123r0c0v2.3.jpg	 x	 0.880	 EARLY_RESPONSE	 2.3	 bl
16	 7	 0	 x	 LineStimuli//2.3/stimNo158r0c0v2.3.jpg	 r	 6.822	 GoodTrial	 2.3	 bl
17	 7	 1	 left	 LineStimuli//2.3/stimNo82r12c4v2.3.jpg	 l	 1.635	 GoodTrial	 2.3	 bl
18	 7	 0	 x	 LineStimuli//2.3/stimNo137r0c0v2.3.jpg	 r	 3.831	 GoodTrial	 2.3	 bl
19	 7	 0	 x	 LineStimuli//2.3/stimNo156r0c0v2.3.jpg	 r	 2.774	 GoodTrial	 2.3	 bl
20	 7	 0	 x	 LineStimuli//2.3/stimNo150r0c0v2.3.jpg	 r	 3.746	 GoodTrial	 2.3	 bl
21	 7	 1	 right	 LineStimuli//2.3/stimNo93r4c16v2.3.jpg	 l	 1.768	 GoodTrial	 2.3	 bl
22	 7	 1	 left	 LineStimuli//2.3/stimNo94r8c9v2.3.jpg	 l	 1.714	 GoodTrial	 2.3	 bl
23	 7	 0	 x	 LineStimuli//2.3/stimNo121r0c0v2.3.jpg	 r	 2.596	 GoodTrial	 2.3	 bl
24	 7	 0	 x	 LineStimuli//2.3/stimNo148r0c0v2.3.jpg	 r	 6.980	 GoodTrial	 2.3	 bl
25	 7	 0	 x	 LineStimuli//2.3/stimNo138r0c0v2.3.jpg	 r	 5.027	 GoodTrial	 2.3	 bl
26	 7	 0	 x	 LineStimuli//2.3/stimNo159r0c0v2.3.jpg	 r	 6.245	 GoodTrial	 2.3	 bl
27	 7	 1	 right	 LineStimuli//2.3/stimNo109r2c17v2.3.jpg	 l	 2.143	 GoodTrial	 2.3	 bl
28	 7	 0	 x	 LineStimuli//2.3/stimNo154r0c0v2.3.jpg	 r	 5.900	 GoodTrial	 2.3	 bl
29	 7	 0	 x	 LineStimuli//2.3/stimNo127r0c0v2.3.jpg	 r	 3.674	 GoodTrial	 2.3	 bl
30	 7	 0	 x	 LineStimuli//2.3/stimNo129r0c0v2.3.jpg	 r	 3.524	 GoodTrial	 2.3	 bl
31	 7	 0	 x	 LineStimuli//2.3/stimNo133r0c0v2.3.jpg	 r	 3.500	 GoodTrial	 2.3	 bl
32	 7	 1	 right	 LineStimuli//2.3/stimNo107r11c15v2.3.jpg	 l	 1.661	 GoodTrial	 2.3	 bl
33	 7	 0	 x	 LineStimuli//2.3/stimNo157r0c0v2.3.jpg	 r	 2.794	 GoodTrial	 2.3	 bl
34	 7	 0	 x	 LineStimuli//2.3/stimNo146r0c0v2.3.jpg	 r	 3.103	 GoodTrial	 2.3	 bl
35	 7	 1	 left	 LineStimuli//2.3/stimNo100r8c6v2.3.jpg	 l	 1.505	 GoodTrial	 2.3	 bl
36	 7	 0	 x	 LineStimuli//2.3/stimNo152r0c0v2.3.jpg	 r	 3.079	 GoodTrial	 2.3	 bl
37	 7	 1	 right	 LineStimuli//2.3/stimNo110r15c19v2.3.jpg	 l	 1.600	 GoodTrial	 2.3	 bl
38	 7	 1	 left	 LineStimuli//2.3/stimNo112r3c2v2.3.jpg	 l	 1.636	 GoodTrial	 2.3	 bl
39	 7	 1	 right	 LineStimuli//2.3/stimNo105r14c14v2.3.jpg	 l	 1.544	 GoodTrial	 2.3	 bl
40	 7	 1	 left	 LineStimuli//2.3/stimNo96r3c3v2.3.jpg	 l	 1.447	 GoodTrial	 2.3	 bl
41	 7	 1	 right	 LineStimuli//2.3/stimNo101r8c14v2.3.jpg	 l	 1.454	 GoodTrial	 2.3	 bl
42	 7	 1	 left	 LineStimuli//2.3/stimNo108r15c6v2.3.jpg	 l	 1.516	 GoodTrial	 2.3	 bl
43	 7	 1	 right	 LineStimuli//2.3/stimNo89r8c21v2.3.jpg	 l	 1.511	 GoodTrial	 2.3	 bl
44	 7	 1	 left	 LineStimuli//2.3/stimNo83r14c4v2.3.jpg	 l	 1.475	 GoodTrial	 2.3	 bl
45	 7	 1	 right	 LineStimuli//2.3/stimNo99r2c13v2.3.jpg	 l	 1.624	 GoodTrial	 2.3	 bl
46	 7	 0	 x	 LineStimuli//2.3/stimNo153r0c0v2.3.jpg	 r	 3.709	 GoodTrial	 2.3	 bl
47	 7	 1	 left	 LineStimuli//2.3/stimNo114r7c8v2.3.jpg	 l	 1.455	 GoodTrial	 2.3	 bl
48	 7	 1	 right	 LineStimuli//2.3/stimNo87r13c19v2.3.jpg	 l	 1.506	 GoodTrial	 2.3	 bl
49	 7	 1	 right	 LineStimuli//2.3/stimNo102r6c18v2.3.jpg	 l	 1.406	 GoodTrial	 2.3	 bl
50	 7	 1	 left	 LineStimuli//2.3/stimNo97r3c3v2.3.jpg	 l	 1.564	 GoodTrial	 2.3	 bl
