Trial	Block	Target_pr	Target_side	Name	Key	RT	Message	Block_Type	Condition
1	 1	 1	 right	 LineStimuli//3.8/stimNo82r9c21v3.8.jpg	 l	 2.452	 GoodTrial	 3.8	 bl
2	 1	 1	 left	 LineStimuli//3.8/stimNo118r4c8v3.8.jpg	 l	 1.682	 GoodTrial	 3.8	 bl
3	 1	 1	 right	 LineStimuli//3.8/stimNo117r6c17v3.8.jpg	 l	 2.045	 GoodTrial	 3.8	 bl
4	 1	 1	 right	 LineStimuli//3.8/stimNo112r12c16v3.8.jpg	 l	 2.747	 GoodTrial	 3.8	 bl
5	 1	 0	 x	 LineStimuli//3.8/stimNo130r0c0v3.8.jpg	 r	 5.321	 GoodTrial	 3.8	 bl
6	 1	 1	 right	 LineStimuli//3.8/stimNo85r3c13v3.8.jpg	 l	 4.911	 GoodTrial	 3.8	 bl
7	 1	 0	 x	 LineStimuli//3.8/stimNo144r0c0v3.8.jpg	 r	 2.545	 GoodTrial	 3.8	 bl
8	 1	 1	 left	 LineStimuli//3.8/stimNo100r13c6v3.8.jpg	 l	 1.485	 GoodTrial	 3.8	 bl
9	 1	 0	 x	 LineStimuli//3.8/stimNo160r0c0v3.8.jpg	 l	 6.065	 GoodTrial	 3.8	 bl
10	 1	 0	 x	 LineStimuli//3.8/stimNo132r0c0v3.8.jpg	 l	 4.350	 GoodTrial	 3.8	 bl
11	 1	 1	 left	 LineStimuli//3.8/stimNo106r9c9v3.8.jpg	 l	 2.430	 GoodTrial	 3.8	 bl
12	 1	 0	 x	 LineStimuli//3.8/stimNo155r0c0v3.8.jpg	 r	 4.562	 GoodTrial	 3.8	 bl
13	 1	 1	 left	 LineStimuli//3.8/stimNo105r2c6v3.8.jpg	 l	 2.277	 GoodTrial	 3.8	 bl
14	 1	 0	 x	 LineStimuli//3.8/stimNo146r0c0v3.8.jpg	 r	 3.280	 GoodTrial	 3.8	 bl
15	 1	 0	 x	 LineStimuli//3.8/stimNo141r0c0v3.8.jpg	 r	 2.978	 GoodTrial	 3.8	 bl
16	 1	 1	 left	 LineStimuli//3.8/stimNo120r5c3v3.8.jpg	 l	 1.746	 GoodTrial	 3.8	 bl
17	 1	 1	 left	 LineStimuli//3.8/stimNo97r15c9v3.8.jpg	 l	 2.205	 GoodTrial	 3.8	 bl
18	 1	 1	 right	 LineStimuli//3.8/stimNo84r9c19v3.8.jpg	 l	 7.872	 GoodTrial	 3.8	 bl
19	 1	 1	 right	 LineStimuli//3.8/stimNo111r15c20v3.8.jpg	 l	 2.160	 GoodTrial	 3.8	 bl
20	 1	 0	 x	 LineStimuli//3.8/stimNo158r0c0v3.8.jpg	 r	 3.487	 GoodTrial	 3.8	 bl
21	 1	 1	 left	 LineStimuli//3.8/stimNo110r7c9v3.8.jpg	 l	 5.328	 GoodTrial	 3.8	 bl
22	 1	 0	 x	 LineStimuli//3.8/stimNo133r0c0v3.8.jpg	 r	 2.507	 GoodTrial	 3.8	 bl
23	 1	 0	 x	 LineStimuli//3.8/stimNo151r0c0v3.8.jpg	 r	 2.688	 GoodTrial	 3.8	 bl
24	 1	 1	 left	 LineStimuli//3.8/stimNo116r7c3v3.8.jpg	 l	 3.240	 GoodTrial	 3.8	 bl
25	 1	 1	 right	 LineStimuli//3.8/stimNo88r10c17v3.8.jpg	 l	 2.231	 GoodTrial	 3.8	 bl
26	 1	 0	 x	 LineStimuli//3.8/stimNo145r0c0v3.8.jpg	 r	 2.080	 GoodTrial	 3.8	 bl
27	 1	 1	 right	 LineStimuli//3.8/stimNo114r10c14v3.8.jpg	 l	 1.933	 GoodTrial	 3.8	 bl
28	 1	 1	 right	 LineStimuli//3.8/stimNo96r2c13v3.8.jpg	 l	 1.805	 GoodTrial	 3.8	 bl
29	 1	 1	 right	 LineStimuli//3.8/stimNo94r6c17v3.8.jpg	 l	 1.728	 GoodTrial	 3.8	 bl
30	 1	 1	 left	 LineStimuli//3.8/stimNo109r11c8v3.8.jpg	 l	 1.664	 GoodTrial	 3.8	 bl
31	 1	 0	 x	 LineStimuli//3.8/stimNo142r0c0v3.8.jpg	 r	 2.236	 GoodTrial	 3.8	 bl
32	 1	 0	 x	 LineStimuli//3.8/stimNo121r0c0v3.8.jpg	 r	 2.237	 GoodTrial	 3.8	 bl
33	 1	 0	 x	 LineStimuli//3.8/stimNo148r0c0v3.8.jpg	 r	 2.540	 GoodTrial	 3.8	 bl
34	 1	 0	 x	 LineStimuli//3.8/stimNo129r0c0v3.8.jpg	 r	 1.800	 GoodTrial	 3.8	 bl
35	 1	 0	 x	 LineStimuli//3.8/stimNo138r0c0v3.8.jpg	 r	 1.750	 GoodTrial	 3.8	 bl
36	 1	 0	 x	 LineStimuli//3.8/stimNo157r0c0v3.8.jpg	 r	 3.388	 GoodTrial	 3.8	 bl
37	 1	 1	 left	 LineStimuli//3.8/stimNo83r9c9v3.8.jpg	 l	 2.325	 GoodTrial	 3.8	 bl
38	 1	 0	 x	 LineStimuli//3.8/stimNo124r0c0v3.8.jpg	 r	 1.877	 GoodTrial	 3.8	 bl
39	 1	 0	 x	 LineStimuli//3.8/stimNo159r0c0v3.8.jpg	 r	 1.978	 GoodTrial	 3.8	 bl
40	 1	 0	 x	 LineStimuli//3.8/stimNo147r0c0v3.8.jpg	 r	 3.077	 GoodTrial	 3.8	 bl
41	 1	 1	 right	 LineStimuli//3.8/stimNo81r3c21v3.8.jpg	 l	 1.924	 GoodTrial	 3.8	 bl
42	 1	 0	 x	 LineStimuli//3.8/stimNo137r0c0v3.8.jpg	 r	 2.373	 GoodTrial	 3.8	 bl
43	 1	 0	 x	 LineStimuli//3.8/stimNo125r0c0v3.8.jpg	 r	 2.428	 GoodTrial	 3.8	 bl
44	 1	 0	 x	 LineStimuli//3.8/stimNo134r0c0v3.8.jpg	 r	 3.383	 GoodTrial	 3.8	 bl
45	 1	 0	 x	 LineStimuli//3.8/stimNo128r0c0v3.8.jpg	 r	 2.144	 GoodTrial	 3.8	 bl
46	 1	 0	 x	 LineStimuli//3.8/stimNo135r0c0v3.8.jpg	 r	 2.861	 GoodTrial	 3.8	 bl
47	 1	 1	 right	 LineStimuli//3.8/stimNo107r9c18v3.8.jpg	 l	 2.132	 GoodTrial	 3.8	 bl
48	 1	 0	 x	 LineStimuli//3.8/stimNo127r0c0v3.8.jpg	 r	 2.088	 GoodTrial	 3.8	 bl
49	 1	 1	 right	 LineStimuli//3.8/stimNo101r12c17v3.8.jpg	 r	 0.264	 EARLY_RESPONSE	 3.8	 bl
50	 1	 0	 x	 LineStimuli//3.8/stimNo136r0c0v3.8.jpg	 r	 3.913	 GoodTrial	 3.8	 bl
1	 2	 1	 left	 LineStimuli//2.8/stimNo88r15c3v2.8.jpg	 l	 5.009	 GoodTrial	 2.8	 bl
2	 2	 1	 left	 LineStimuli//2.8/stimNo96r6c9v2.8.jpg	 l	 2.306	 GoodTrial	 2.8	 bl
3	 2	 1	 right	 LineStimuli//2.8/stimNo114r8c19v2.8.jpg	 l	 2.407	 GoodTrial	 2.8	 bl
4	 2	 1	 left	 LineStimuli//2.8/stimNo98r15c2v2.8.jpg	 l	 18.379	 GoodTrial	 2.8	 bl
5	 2	 0	 x	 LineStimuli//2.8/stimNo133r0c0v2.8.jpg	 r	 3.407	 GoodTrial	 2.8	 bl
6	 2	 0	 x	 LineStimuli//2.8/stimNo153r0c0v2.8.jpg	 r	 3.960	 GoodTrial	 2.8	 bl
7	 2	 1	 left	 LineStimuli//2.8/stimNo119r8c5v2.8.jpg	 l	 2.840	 GoodTrial	 2.8	 bl
8	 2	 1	 left	 LineStimuli//2.8/stimNo87r11c8v2.8.jpg	 l	 2.040	 GoodTrial	 2.8	 bl
9	 2	 0	 x	 LineStimuli//2.8/stimNo151r0c0v2.8.jpg	 r	 2.327	 GoodTrial	 2.8	 bl
10	 2	 1	 right	 LineStimuli//2.8/stimNo109r6c18v2.8.jpg	 l	 1.773	 GoodTrial	 2.8	 bl
11	 2	 1	 left	 LineStimuli//2.8/stimNo94r13c7v2.8.jpg	 l	 2.063	 GoodTrial	 2.8	 bl
12	 2	 0	 x	 LineStimuli//2.8/stimNo156r0c0v2.8.jpg	 r	 3.849	 GoodTrial	 2.8	 bl
13	 2	 0	 x	 LineStimuli//2.8/stimNo147r0c0v2.8.jpg	 r	 2.261	 GoodTrial	 2.8	 bl
14	 2	 0	 x	 LineStimuli//2.8/stimNo126r0c0v2.8.jpg	 r	 3.850	 GoodTrial	 2.8	 bl
15	 2	 0	 x	 LineStimuli//2.8/stimNo141r0c0v2.8.jpg	 x	 2.112	 GoodTrial	 2.8	 bl
16	 2	 1	 left	 LineStimuli//2.8/stimNo89r12c4v2.8.jpg	 l	 2.181	 GoodTrial	 2.8	 bl
17	 2	 1	 right	 LineStimuli//2.8/stimNo99r9c18v2.8.jpg	 l	 2.966	 GoodTrial	 2.8	 bl
18	 2	 1	 right	 LineStimuli//2.8/stimNo110r7c14v2.8.jpg	 l	 1.927	 GoodTrial	 2.8	 bl
19	 2	 1	 right	 LineStimuli//2.8/stimNo118r5c16v2.8.jpg	 l	 1.792	 GoodTrial	 2.8	 bl
20	 2	 0	 x	 LineStimuli//2.8/stimNo129r0c0v2.8.jpg	 r	 3.480	 GoodTrial	 2.8	 bl
21	 2	 0	 x	 LineStimuli//2.8/stimNo150r0c0v2.8.jpg	 r	 3.649	 GoodTrial	 2.8	 bl
22	 2	 1	 left	 LineStimuli//2.8/stimNo86r15c6v2.8.jpg	 r	 3.869	 GoodTrial	 2.8	 bl
23	 2	 0	 x	 LineStimuli//2.8/stimNo130r0c0v2.8.jpg	 r	 2.919	 GoodTrial	 2.8	 bl
24	 2	 0	 x	 LineStimuli//2.8/stimNo132r0c0v2.8.jpg	 r	 3.321	 GoodTrial	 2.8	 bl
25	 2	 0	 x	 LineStimuli//2.8/stimNo128r0c0v2.8.jpg	 r	 3.334	 GoodTrial	 2.8	 bl
26	 2	 0	 x	 LineStimuli//2.8/stimNo122r0c0v2.8.jpg	 r	 3.745	 GoodTrial	 2.8	 bl
27	 2	 1	 left	 LineStimuli//2.8/stimNo97r11c4v2.8.jpg	 l	 1.949	 GoodTrial	 2.8	 bl
28	 2	 1	 left	 LineStimuli//2.8/stimNo105r5c4v2.8.jpg	 l	 1.858	 GoodTrial	 2.8	 bl
29	 2	 0	 x	 LineStimuli//2.8/stimNo146r0c0v2.8.jpg	 r	 3.634	 GoodTrial	 2.8	 bl
30	 2	 0	 x	 LineStimuli//2.8/stimNo149r0c0v2.8.jpg	 r	 2.352	 GoodTrial	 2.8	 bl
31	 2	 1	 left	 LineStimuli//2.8/stimNo108r13c6v2.8.jpg	 l	 1.976	 GoodTrial	 2.8	 bl
32	 2	 1	 left	 LineStimuli//2.8/stimNo113r9c5v2.8.jpg	 l	 1.762	 GoodTrial	 2.8	 bl
33	 2	 1	 left	 LineStimuli//2.8/stimNo84r3c9v2.8.jpg	 l	 1.695	 GoodTrial	 2.8	 bl
34	 2	 0	 x	 LineStimuli//2.8/stimNo144r0c0v2.8.jpg	 r	 3.084	 GoodTrial	 2.8	 bl
35	 2	 1	 right	 LineStimuli//2.8/stimNo101r12c16v2.8.jpg	 l	 1.655	 GoodTrial	 2.8	 bl
36	 2	 1	 left	 LineStimuli//2.8/stimNo83r12c4v2.8.jpg	 l	 2.075	 GoodTrial	 2.8	 bl
37	 2	 0	 x	 LineStimuli//2.8/stimNo138r0c0v2.8.jpg	 r	 2.025	 GoodTrial	 2.8	 bl
38	 2	 1	 left	 LineStimuli//2.8/stimNo82r4c6v2.8.jpg	 l	 1.645	 GoodTrial	 2.8	 bl
39	 2	 0	 x	 LineStimuli//2.8/stimNo123r0c0v2.8.jpg	 r	 1.831	 GoodTrial	 2.8	 bl
40	 2	 0	 x	 LineStimuli//2.8/stimNo134r0c0v2.8.jpg	 r	 2.224	 GoodTrial	 2.8	 bl
41	 2	 1	 right	 LineStimuli//2.8/stimNo81r8c14v2.8.jpg	 l	 1.912	 GoodTrial	 2.8	 bl
42	 2	 1	 left	 LineStimuli//2.8/stimNo107r5c6v2.8.jpg	 l	 1.525	 GoodTrial	 2.8	 bl
43	 2	 0	 x	 LineStimuli//2.8/stimNo139r0c0v2.8.jpg	 r	 2.248	 GoodTrial	 2.8	 bl
44	 2	 0	 x	 LineStimuli//2.8/stimNo157r0c0v2.8.jpg	 r	 2.717	 GoodTrial	 2.8	 bl
45	 2	 1	 right	 LineStimuli//2.8/stimNo115r9c14v2.8.jpg	 l	 2.256	 GoodTrial	 2.8	 bl
46	 2	 0	 x	 LineStimuli//2.8/stimNo148r0c0v2.8.jpg	 r	 6.975	 GoodTrial	 2.8	 bl
47	 2	 0	 x	 LineStimuli//2.8/stimNo127r0c0v2.8.jpg	 r	 5.955	 GoodTrial	 2.8	 bl
48	 2	 1	 left	 LineStimuli//2.8/stimNo102r3c2v2.8.jpg	 l	 2.140	 GoodTrial	 2.8	 bl
49	 2	 0	 x	 LineStimuli//2.8/stimNo124r0c0v2.8.jpg	 r	 1.797	 GoodTrial	 2.8	 bl
50	 2	 1	 left	 LineStimuli//2.8/stimNo116r4c7v2.8.jpg	 l	 2.575	 GoodTrial	 2.8	 bl
1	 3	 0	 x	 LineStimuli//1.8/stimNo136r0c0v1.8.jpg	 r	 4.512	 GoodTrial	 1.8	 bl
2	 3	 0	 x	 LineStimuli//1.8/stimNo148r0c0v1.8.jpg	 r	 3.319	 GoodTrial	 1.8	 bl
3	 3	 0	 x	 LineStimuli//1.8/stimNo125r0c0v1.8.jpg	 r	 1.799	 GoodTrial	 1.8	 bl
4	 3	 1	 right	 LineStimuli//1.8/stimNo109r7c17v1.8.jpg	 l	 2.460	 GoodTrial	 1.8	 bl
5	 3	 0	 x	 LineStimuli//1.8/stimNo150r0c0v1.8.jpg	 r	 3.188	 GoodTrial	 1.8	 bl
6	 3	 1	 right	 LineStimuli//1.8/stimNo102r14c17v1.8.jpg	 r	 2.023	 GoodTrial	 1.8	 bl
7	 3	 1	 right	 LineStimuli//1.8/stimNo84r11c21v1.8.jpg	 r	 1.727	 GoodTrial	 1.8	 bl
8	 3	 1	 right	 LineStimuli//1.8/stimNo108r9c21v1.8.jpg	 r	 1.633	 GoodTrial	 1.8	 bl
9	 3	 1	 left	 LineStimuli//1.8/stimNo94r13c8v1.8.jpg	 r	 1.786	 GoodTrial	 1.8	 bl
10	 3	 1	 left	 LineStimuli//1.8/stimNo113r6c7v1.8.jpg	 r	 1.749	 GoodTrial	 1.8	 bl
11	 3	 0	 x	 LineStimuli//1.8/stimNo124r0c0v1.8.jpg	 r	 1.347	 GoodTrial	 1.8	 bl
12	 3	 0	 x	 LineStimuli//1.8/stimNo156r0c0v1.8.jpg	 r	 2.176	 GoodTrial	 1.8	 bl
13	 3	 1	 left	 LineStimuli//1.8/stimNo106r13c9v1.8.jpg	 r	 2.251	 GoodTrial	 1.8	 bl
14	 3	 0	 x	 LineStimuli//1.8/stimNo134r0c0v1.8.jpg	 r	 4.149	 GoodTrial	 1.8	 bl
15	 3	 1	 right	 LineStimuli//1.8/stimNo101r4c13v1.8.jpg	 l	 2.656	 GoodTrial	 1.8	 bl
16	 3	 1	 right	 LineStimuli//1.8/stimNo104r3c21v1.8.jpg	 r	 2.989	 GoodTrial	 1.8	 bl
17	 3	 0	 x	 LineStimuli//1.8/stimNo130r0c0v1.8.jpg	 r	 2.775	 GoodTrial	 1.8	 bl
18	 3	 1	 left	 LineStimuli//1.8/stimNo88r15c9v1.8.jpg	 r	 1.829	 GoodTrial	 1.8	 bl
19	 3	 0	 x	 LineStimuli//1.8/stimNo147r0c0v1.8.jpg	 r	 1.946	 GoodTrial	 1.8	 bl
20	 3	 0	 x	 LineStimuli//1.8/stimNo146r0c0v1.8.jpg	 r	 1.767	 GoodTrial	 1.8	 bl
21	 3	 0	 x	 LineStimuli//1.8/stimNo157r0c0v1.8.jpg	 r	 1.757	 GoodTrial	 1.8	 bl
22	 3	 0	 x	 LineStimuli//1.8/stimNo153r0c0v1.8.jpg	 r	 3.583	 GoodTrial	 1.8	 bl
23	 3	 0	 x	 LineStimuli//1.8/stimNo155r0c0v1.8.jpg	 r	 3.053	 GoodTrial	 1.8	 bl
24	 3	 0	 x	 LineStimuli//1.8/stimNo160r0c0v1.8.jpg	 r	 5.671	 GoodTrial	 1.8	 bl
25	 3	 1	 left	 LineStimuli//1.8/stimNo81r6c8v1.8.jpg	 r	 4.189	 GoodTrial	 1.8	 bl
26	 3	 1	 right	 LineStimuli//1.8/stimNo90r15c13v1.8.jpg	 r	 5.125	 GoodTrial	 1.8	 bl
27	 3	 0	 x	 LineStimuli//1.8/stimNo158r0c0v1.8.jpg	 r	 3.371	 GoodTrial	 1.8	 bl
28	 3	 1	 right	 LineStimuli//1.8/stimNo97r15c18v1.8.jpg	 r	 4.464	 GoodTrial	 1.8	 bl
29	 3	 0	 x	 LineStimuli//1.8/stimNo145r0c0v1.8.jpg	 r	 5.792	 GoodTrial	 1.8	 bl
30	 3	 0	 x	 LineStimuli//1.8/stimNo137r0c0v1.8.jpg	 r	 4.189	 GoodTrial	 1.8	 bl
31	 3	 1	 right	 LineStimuli//1.8/stimNo112r6c15v1.8.jpg	 l	 2.917	 GoodTrial	 1.8	 bl
32	 3	 0	 x	 LineStimuli//1.8/stimNo127r0c0v1.8.jpg	 r	 3.551	 GoodTrial	 1.8	 bl
33	 3	 1	 left	 LineStimuli//1.8/stimNo85r13c2v1.8.jpg	 r	 3.375	 GoodTrial	 1.8	 bl
34	 3	 0	 x	 LineStimuli//1.8/stimNo159r0c0v1.8.jpg	 r	 2.490	 GoodTrial	 1.8	 bl
35	 3	 1	 left	 LineStimuli//1.8/stimNo115r5c9v1.8.jpg	 l	 2.242	 GoodTrial	 1.8	 bl
36	 3	 1	 right	 LineStimuli//1.8/stimNo82r7c18v1.8.jpg	 l	 2.283	 GoodTrial	 1.8	 bl
37	 3	 0	 x	 LineStimuli//1.8/stimNo154r0c0v1.8.jpg	 r	 5.077	 GoodTrial	 1.8	 bl
38	 3	 1	 left	 LineStimuli//1.8/stimNo103r15c10v1.8.jpg	 r	 4.999	 GoodTrial	 1.8	 bl
39	 3	 1	 left	 LineStimuli//1.8/stimNo89r11c6v1.8.jpg	 r	 2.607	 GoodTrial	 1.8	 bl
40	 3	 1	 right	 LineStimuli//1.8/stimNo93r3c17v1.8.jpg	 r	 3.615	 GoodTrial	 1.8	 bl
41	 3	 0	 x	 LineStimuli//1.8/stimNo123r0c0v1.8.jpg	 r	 3.645	 GoodTrial	 1.8	 bl
42	 3	 1	 left	 LineStimuli//1.8/stimNo96r13c2v1.8.jpg	 r	 3.497	 GoodTrial	 1.8	 bl
43	 3	 0	 x	 LineStimuli//1.8/stimNo132r0c0v1.8.jpg	 r	 4.887	 GoodTrial	 1.8	 bl
44	 3	 0	 x	 LineStimuli//1.8/stimNo121r0c0v1.8.jpg	 r	 4.367	 GoodTrial	 1.8	 bl
45	 3	 0	 x	 LineStimuli//1.8/stimNo140r0c0v1.8.jpg	 r	 5.044	 GoodTrial	 1.8	 bl
46	 3	 1	 left	 LineStimuli//1.8/stimNo87r14c2v1.8.jpg	 r	 3.948	 GoodTrial	 1.8	 bl
47	 3	 0	 x	 LineStimuli//1.8/stimNo135r0c0v1.8.jpg	 r	 4.746	 GoodTrial	 1.8	 bl
48	 3	 0	 x	 LineStimuli//1.8/stimNo152r0c0v1.8.jpg	 r	 3.872	 GoodTrial	 1.8	 bl
49	 3	 0	 x	 LineStimuli//1.8/stimNo138r0c0v1.8.jpg	 r	 1.970	 GoodTrial	 1.8	 bl
50	 3	 1	 right	 LineStimuli//1.8/stimNo111r4c21v1.8.jpg	 r	 1.825	 GoodTrial	 1.8	 bl
1	 4	 0	 x	 LineStimuli//2.3/stimNo140r0c0v2.3.jpg	 r	 4.166	 GoodTrial	 2.3	 bl
2	 4	 0	 x	 LineStimuli//2.3/stimNo154r0c0v2.3.jpg	 r	 3.536	 GoodTrial	 2.3	 bl
3	 4	 1	 right	 LineStimuli//2.3/stimNo105r14c14v2.3.jpg	 r	 3.071	 GoodTrial	 2.3	 bl
4	 4	 0	 x	 LineStimuli//2.3/stimNo144r0c0v2.3.jpg	 r	 3.608	 GoodTrial	 2.3	 bl
5	 4	 0	 x	 LineStimuli//2.3/stimNo149r0c0v2.3.jpg	 r	 3.388	 GoodTrial	 2.3	 bl
6	 4	 0	 x	 LineStimuli//2.3/stimNo143r0c0v2.3.jpg	 r	 3.148	 GoodTrial	 2.3	 bl
7	 4	 1	 left	 LineStimuli//2.3/stimNo108r15c6v2.3.jpg	 r	 3.034	 GoodTrial	 2.3	 bl
8	 4	 1	 right	 LineStimuli//2.3/stimNo89r8c21v2.3.jpg	 l	 2.263	 GoodTrial	 2.3	 bl
9	 4	 1	 left	 LineStimuli//2.3/stimNo88r15c2v2.3.jpg	 r	 2.901	 GoodTrial	 2.3	 bl
10	 4	 1	 right	 LineStimuli//2.3/stimNo92r10c17v2.3.jpg	 l	 2.125	 GoodTrial	 2.3	 bl
11	 4	 0	 x	 LineStimuli//2.3/stimNo160r0c0v2.3.jpg	 r	 2.943	 GoodTrial	 2.3	 bl
12	 4	 1	 left	 LineStimuli//2.3/stimNo97r3c3v2.3.jpg	 r	 4.751	 GoodTrial	 2.3	 bl
13	 4	 1	 right	 LineStimuli//2.3/stimNo118r4c17v2.3.jpg	 l	 2.212	 GoodTrial	 2.3	 bl
14	 4	 0	 x	 LineStimuli//2.3/stimNo134r0c0v2.3.jpg	 r	 2.721	 GoodTrial	 2.3	 bl
15	 4	 0	 x	 LineStimuli//2.3/stimNo145r0c0v2.3.jpg	 r	 3.270	 GoodTrial	 2.3	 bl
16	 4	 0	 x	 LineStimuli//2.3/stimNo123r0c0v2.3.jpg	 r	 4.157	 GoodTrial	 2.3	 bl
17	 4	 1	 left	 LineStimuli//2.3/stimNo113r3c8v2.3.jpg	 l	 2.364	 GoodTrial	 2.3	 bl
18	 4	 1	 left	 LineStimuli//2.3/stimNo82r12c4v2.3.jpg	 l	 1.894	 GoodTrial	 2.3	 bl
19	 4	 0	 x	 LineStimuli//2.3/stimNo128r0c0v2.3.jpg	 r	 2.434	 GoodTrial	 2.3	 bl
20	 4	 1	 right	 LineStimuli//2.3/stimNo84r15c14v2.3.jpg	 l	 2.219	 GoodTrial	 2.3	 bl
21	 4	 0	 x	 LineStimuli//2.3/stimNo131r0c0v2.3.jpg	 r	 2.694	 GoodTrial	 2.3	 bl
22	 4	 0	 x	 LineStimuli//2.3/stimNo157r0c0v2.3.jpg	 r	 2.046	 GoodTrial	 2.3	 bl
23	 4	 1	 right	 LineStimuli//2.3/stimNo99r2c13v2.3.jpg	 l	 2.241	 GoodTrial	 2.3	 bl
24	 4	 0	 x	 LineStimuli//2.3/stimNo142r0c0v2.3.jpg	 r	 2.476	 GoodTrial	 2.3	 bl
25	 4	 0	 x	 LineStimuli//2.3/stimNo152r0c0v2.3.jpg	 r	 3.359	 GoodTrial	 2.3	 bl
26	 4	 1	 left	 LineStimuli//2.3/stimNo116r2c2v2.3.jpg	 l	 2.495	 GoodTrial	 2.3	 bl
27	 4	 0	 x	 LineStimuli//2.3/stimNo151r0c0v2.3.jpg	 r	 3.031	 GoodTrial	 2.3	 bl
28	 4	 0	 x	 LineStimuli//2.3/stimNo127r0c0v2.3.jpg	 r	 3.487	 GoodTrial	 2.3	 bl
29	 4	 1	 left	 LineStimuli//2.3/stimNo96r3c3v2.3.jpg	 l	 1.996	 GoodTrial	 2.3	 bl
30	 4	 1	 left	 LineStimuli//2.3/stimNo115r7c3v2.3.jpg	 l	 1.825	 GoodTrial	 2.3	 bl
31	 4	 0	 x	 LineStimuli//2.3/stimNo129r0c0v2.3.jpg	 r	 4.186	 GoodTrial	 2.3	 bl
32	 4	 1	 left	 LineStimuli//2.3/stimNo86r8c9v2.3.jpg	 l	 1.802	 GoodTrial	 2.3	 bl
33	 4	 0	 x	 LineStimuli//2.3/stimNo124r0c0v2.3.jpg	 r	 3.691	 GoodTrial	 2.3	 bl
34	 4	 0	 x	 LineStimuli//2.3/stimNo146r0c0v2.3.jpg	 r	 2.594	 GoodTrial	 2.3	 bl
35	 4	 0	 x	 LineStimuli//2.3/stimNo148r0c0v2.3.jpg	 r	 3.667	 GoodTrial	 2.3	 bl
36	 4	 0	 x	 LineStimuli//2.3/stimNo135r0c0v2.3.jpg	 r	 2.847	 GoodTrial	 2.3	 bl
37	 4	 0	 x	 LineStimuli//2.3/stimNo136r0c0v2.3.jpg	 r	 2.048	 GoodTrial	 2.3	 bl
38	 4	 1	 right	 LineStimuli//2.3/stimNo102r6c18v2.3.jpg	 l	 1.746	 GoodTrial	 2.3	 bl
39	 4	 1	 right	 LineStimuli//2.3/stimNo103r11c21v2.3.jpg	 l	 2.629	 GoodTrial	 2.3	 bl
40	 4	 0	 x	 LineStimuli//2.3/stimNo133r0c0v2.3.jpg	 r	 2.928	 GoodTrial	 2.3	 bl
41	 4	 1	 left	 LineStimuli//2.3/stimNo100r8c6v2.3.jpg	 l	 1.890	 GoodTrial	 2.3	 bl
42	 4	 1	 right	 LineStimuli//2.3/stimNo109r2c17v2.3.jpg	 l	 1.883	 GoodTrial	 2.3	 bl
43	 4	 1	 right	 LineStimuli//2.3/stimNo111r11c21v2.3.jpg	 l	 1.888	 GoodTrial	 2.3	 bl
44	 4	 0	 x	 LineStimuli//2.3/stimNo155r0c0v2.3.jpg	 r	 3.300	 GoodTrial	 2.3	 bl
45	 4	 1	 right	 LineStimuli//2.3/stimNo107r11c15v2.3.jpg	 l	 1.677	 GoodTrial	 2.3	 bl
46	 4	 0	 x	 LineStimuli//2.3/stimNo150r0c0v2.3.jpg	 r	 3.086	 GoodTrial	 2.3	 bl
47	 4	 0	 x	 LineStimuli//2.3/stimNo141r0c0v2.3.jpg	 r	 1.961	 GoodTrial	 2.3	 bl
48	 4	 1	 right	 LineStimuli//2.3/stimNo101r8c14v2.3.jpg	 l	 1.800	 GoodTrial	 2.3	 bl
49	 4	 1	 right	 LineStimuli//2.3/stimNo93r4c16v2.3.jpg	 l	 1.687	 GoodTrial	 2.3	 bl
50	 4	 0	 x	 LineStimuli//2.3/stimNo130r0c0v2.3.jpg	 r	 2.413	 GoodTrial	 2.3	 bl
1	 5	 1	 right	 LineStimuli//1.5/stimNo98r8c21v1.5.jpg	 l	 2.471	 GoodTrial	 1.5	 bl
2	 5	 0	 x	 LineStimuli//1.5/stimNo143r0c0v1.5.jpg	 r	 2.306	 GoodTrial	 1.5	 bl
3	 5	 1	 left	 LineStimuli//1.5/stimNo106r3c7v1.5.jpg	 r	 3.149	 GoodTrial	 1.5	 bl
4	 5	 1	 right	 LineStimuli//1.5/stimNo86r6c16v1.5.jpg	 r	 7.489	 GoodTrial	 1.5	 bl
5	 5	 1	 right	 LineStimuli//1.5/stimNo115r14c18v1.5.jpg	 r	 2.813	 GoodTrial	 1.5	 bl
6	 5	 0	 x	 LineStimuli//1.5/stimNo151r0c0v1.5.jpg	 r	 3.016	 GoodTrial	 1.5	 bl
7	 5	 1	 right	 LineStimuli//1.5/stimNo111r7c17v1.5.jpg	 r	 0.456	 EARLY_RESPONSE	 1.5	 bl
8	 5	 1	 right	 LineStimuli//1.5/stimNo82r11c15v1.5.jpg	 r	 2.735	 GoodTrial	 1.5	 bl
9	 5	 1	 right	 LineStimuli//1.5/stimNo101r5c20v1.5.jpg	 r	 3.271	 GoodTrial	 1.5	 bl
10	 5	 0	 x	 LineStimuli//1.5/stimNo138r0c0v1.5.jpg	 r	 2.665	 GoodTrial	 1.5	 bl
11	 5	 1	 right	 LineStimuli//1.5/stimNo103r13c17v1.5.jpg	 r	 3.503	 GoodTrial	 1.5	 bl
12	 5	 0	 x	 LineStimuli//1.5/stimNo130r0c0v1.5.jpg	 l	 3.997	 GoodTrial	 1.5	 bl
13	 5	 0	 x	 LineStimuli//1.5/stimNo142r0c0v1.5.jpg	 r	 3.216	 GoodTrial	 1.5	 bl
14	 5	 0	 x	 LineStimuli//1.5/stimNo159r0c0v1.5.jpg	 l	 2.612	 GoodTrial	 1.5	 bl
15	 5	 0	 x	 LineStimuli//1.5/stimNo126r0c0v1.5.jpg	 r	 2.779	 GoodTrial	 1.5	 bl
16	 5	 1	 left	 LineStimuli//1.5/stimNo85r2c5v1.5.jpg	 r	 3.399	 GoodTrial	 1.5	 bl
17	 5	 1	 right	 LineStimuli//1.5/stimNo95r6c14v1.5.jpg	 r	 2.760	 GoodTrial	 1.5	 bl
18	 5	 1	 right	 LineStimuli//1.5/stimNo81r6c17v1.5.jpg	 l	 3.256	 GoodTrial	 1.5	 bl
19	 5	 1	 left	 LineStimuli//1.5/stimNo102r7c6v1.5.jpg	 r	 6.153	 GoodTrial	 1.5	 bl
20	 5	 1	 right	 LineStimuli//1.5/stimNo119r6c19v1.5.jpg	 l	 4.087	 GoodTrial	 1.5	 bl
21	 5	 1	 right	 LineStimuli//1.5/stimNo84r3c18v1.5.jpg	 r	 1.820	 GoodTrial	 1.5	 bl
22	 5	 0	 x	 LineStimuli//1.5/stimNo134r0c0v1.5.jpg	 r	 3.389	 GoodTrial	 1.5	 bl
23	 5	 0	 x	 LineStimuli//1.5/stimNo153r0c0v1.5.jpg	 r	 3.947	 GoodTrial	 1.5	 bl
24	 5	 0	 x	 LineStimuli//1.5/stimNo141r0c0v1.5.jpg	 r	 4.351	 GoodTrial	 1.5	 bl
25	 5	 1	 right	 LineStimuli//1.5/stimNo118r9c20v1.5.jpg	 r	 3.582	 GoodTrial	 1.5	 bl
26	 5	 1	 right	 LineStimuli//1.5/stimNo93r14c18v1.5.jpg	 r	 3.007	 GoodTrial	 1.5	 bl
27	 5	 0	 x	 LineStimuli//1.5/stimNo158r0c0v1.5.jpg	 r	 3.842	 GoodTrial	 1.5	 bl
28	 5	 0	 x	 LineStimuli//1.5/stimNo132r0c0v1.5.jpg	 r	 4.196	 GoodTrial	 1.5	 bl
29	 5	 0	 x	 LineStimuli//1.5/stimNo135r0c0v1.5.jpg	 r	 2.415	 GoodTrial	 1.5	 bl
30	 5	 0	 x	 LineStimuli//1.5/stimNo136r0c0v1.5.jpg	 r	 2.570	 GoodTrial	 1.5	 bl
31	 5	 1	 left	 LineStimuli//1.5/stimNo112r9c5v1.5.jpg	 r	 4.693	 GoodTrial	 1.5	 bl
32	 5	 1	 right	 LineStimuli//1.5/stimNo90r3c15v1.5.jpg	 r	 2.500	 GoodTrial	 1.5	 bl
33	 5	 0	 x	 LineStimuli//1.5/stimNo147r0c0v1.5.jpg	 r	 2.353	 GoodTrial	 1.5	 bl
34	 5	 1	 right	 LineStimuli//1.5/stimNo100r6c20v1.5.jpg	 r	 4.817	 GoodTrial	 1.5	 bl
35	 5	 1	 left	 LineStimuli//1.5/stimNo89r8c9v1.5.jpg	 l	 3.057	 GoodTrial	 1.5	 bl
36	 5	 0	 x	 LineStimuli//1.5/stimNo154r0c0v1.5.jpg	 r	 3.244	 GoodTrial	 1.5	 bl
37	 5	 0	 x	 LineStimuli//1.5/stimNo149r0c0v1.5.jpg	 r	 2.632	 GoodTrial	 1.5	 bl
38	 5	 1	 left	 LineStimuli//1.5/stimNo114r4c4v1.5.jpg	 r	 2.791	 GoodTrial	 1.5	 bl
39	 5	 0	 x	 LineStimuli//1.5/stimNo122r0c0v1.5.jpg	 r	 2.200	 GoodTrial	 1.5	 bl
40	 5	 0	 x	 LineStimuli//1.5/stimNo144r0c0v1.5.jpg	 r	 2.576	 GoodTrial	 1.5	 bl
41	 5	 0	 x	 LineStimuli//1.5/stimNo150r0c0v1.5.jpg	 r	 2.970	 GoodTrial	 1.5	 bl
42	 5	 0	 x	 LineStimuli//1.5/stimNo139r0c0v1.5.jpg	 r	 2.404	 GoodTrial	 1.5	 bl
43	 5	 0	 x	 LineStimuli//1.5/stimNo124r0c0v1.5.jpg	 r	 2.445	 GoodTrial	 1.5	 bl
44	 5	 1	 right	 LineStimuli//1.5/stimNo108r13c15v1.5.jpg	 r	 1.383	 GoodTrial	 1.5	 bl
45	 5	 1	 right	 LineStimuli//1.5/stimNo107r2c19v1.5.jpg	 r	 3.227	 GoodTrial	 1.5	 bl
46	 5	 0	 x	 LineStimuli//1.5/stimNo137r0c0v1.5.jpg	 r	 4.287	 GoodTrial	 1.5	 bl
47	 5	 0	 x	 LineStimuli//1.5/stimNo148r0c0v1.5.jpg	 r	 3.184	 GoodTrial	 1.5	 bl
48	 5	 1	 left	 LineStimuli//1.5/stimNo83r12c7v1.5.jpg	 r	 2.745	 GoodTrial	 1.5	 bl
49	 5	 0	 x	 LineStimuli//1.5/stimNo127r0c0v1.5.jpg	 r	 2.946	 GoodTrial	 1.5	 bl
50	 5	 1	 left	 LineStimuli//1.5/stimNo91r9c3v1.5.jpg	 r	 2.368	 GoodTrial	 1.5	 bl
1	 6	 1	 right	 LineStimuli//3.3/stimNo88r9c14v3.3.jpg	 l	 2.073	 GoodTrial	 3.3	 bl
2	 6	 0	 x	 LineStimuli//3.3/stimNo158r0c0v3.3.jpg	 r	 3.106	 GoodTrial	 3.3	 bl
3	 6	 0	 x	 LineStimuli//3.3/stimNo121r0c0v3.3.jpg	 r	 2.852	 GoodTrial	 3.3	 bl
4	 6	 1	 right	 LineStimuli//3.3/stimNo113r13c15v3.3.jpg	 l	 1.848	 GoodTrial	 3.3	 bl
5	 6	 0	 x	 LineStimuli//3.3/stimNo125r0c0v3.3.jpg	 r	 3.415	 GoodTrial	 3.3	 bl
6	 6	 1	 left	 LineStimuli//3.3/stimNo93r3c5v3.3.jpg	 l	 1.756	 GoodTrial	 3.3	 bl
7	 6	 1	 left	 LineStimuli//3.3/stimNo95r15c8v3.3.jpg	 l	 2.032	 GoodTrial	 3.3	 bl
8	 6	 1	 right	 LineStimuli//3.3/stimNo114r11c21v3.3.jpg	 l	 1.880	 GoodTrial	 3.3	 bl
9	 6	 0	 x	 LineStimuli//3.3/stimNo150r0c0v3.3.jpg	 r	 2.158	 GoodTrial	 3.3	 bl
10	 6	 0	 x	 LineStimuli//3.3/stimNo154r0c0v3.3.jpg	 r	 2.777	 GoodTrial	 3.3	 bl
11	 6	 0	 x	 LineStimuli//3.3/stimNo144r0c0v3.3.jpg	 r	 6.247	 GoodTrial	 3.3	 bl
12	 6	 1	 right	 LineStimuli//3.3/stimNo97r6c13v3.3.jpg	 l	 2.103	 GoodTrial	 3.3	 bl
13	 6	 1	 left	 LineStimuli//3.3/stimNo115r3c4v3.3.jpg	 l	 1.720	 GoodTrial	 3.3	 bl
14	 6	 0	 x	 LineStimuli//3.3/stimNo153r0c0v3.3.jpg	 r	 3.854	 GoodTrial	 3.3	 bl
15	 6	 1	 right	 LineStimuli//3.3/stimNo87r15c13v3.3.jpg	 l	 1.913	 GoodTrial	 3.3	 bl
16	 6	 1	 right	 LineStimuli//3.3/stimNo101r7c16v3.3.jpg	 l	 2.009	 GoodTrial	 3.3	 bl
17	 6	 0	 x	 LineStimuli//3.3/stimNo130r0c0v3.3.jpg	 r	 3.418	 GoodTrial	 3.3	 bl
18	 6	 1	 right	 LineStimuli//3.3/stimNo98r4c21v3.3.jpg	 r	 1.913	 GoodTrial	 3.3	 bl
19	 6	 0	 x	 LineStimuli//3.3/stimNo160r0c0v3.3.jpg	 r	 3.479	 GoodTrial	 3.3	 bl
20	 6	 1	 right	 LineStimuli//3.3/stimNo112r5c15v3.3.jpg	 l	 1.797	 GoodTrial	 3.3	 bl
21	 6	 1	 right	 LineStimuli//3.3/stimNo82r11c20v3.3.jpg	 l	 1.935	 GoodTrial	 3.3	 bl
22	 6	 1	 right	 LineStimuli//3.3/stimNo91r12c16v3.3.jpg	 l	 1.836	 GoodTrial	 3.3	 bl
23	 6	 0	 x	 LineStimuli//3.3/stimNo133r0c0v3.3.jpg	 r	 2.420	 GoodTrial	 3.3	 bl
24	 6	 0	 x	 LineStimuli//3.3/stimNo131r0c0v3.3.jpg	 r	 2.366	 GoodTrial	 3.3	 bl
25	 6	 1	 left	 LineStimuli//3.3/stimNo85r6c4v3.3.jpg	 l	 1.780	 GoodTrial	 3.3	 bl
26	 6	 1	 right	 LineStimuli//3.3/stimNo107r2c17v3.3.jpg	 l	 1.794	 GoodTrial	 3.3	 bl
27	 6	 0	 x	 LineStimuli//3.3/stimNo152r0c0v3.3.jpg	 r	 2.461	 GoodTrial	 3.3	 bl
28	 6	 1	 right	 LineStimuli//3.3/stimNo89r5c21v3.3.jpg	 l	 1.679	 GoodTrial	 3.3	 bl
29	 6	 0	 x	 LineStimuli//3.3/stimNo147r0c0v3.3.jpg	 r	 2.026	 GoodTrial	 3.3	 bl
30	 6	 1	 left	 LineStimuli//3.3/stimNo110r4c3v3.3.jpg	 l	 1.783	 GoodTrial	 3.3	 bl
31	 6	 1	 left	 LineStimuli//3.3/stimNo104r4c4v3.3.jpg	 l	 1.618	 GoodTrial	 3.3	 bl
32	 6	 0	 x	 LineStimuli//3.3/stimNo139r0c0v3.3.jpg	 r	 2.431	 GoodTrial	 3.3	 bl
33	 6	 1	 left	 LineStimuli//3.3/stimNo117r2c5v3.3.jpg	 l	 1.657	 GoodTrial	 3.3	 bl
34	 6	 0	 x	 LineStimuli//3.3/stimNo157r0c0v3.3.jpg	 r	 1.876	 GoodTrial	 3.3	 bl
35	 6	 1	 left	 LineStimuli//3.3/stimNo81r15c8v3.3.jpg	 l	 1.906	 GoodTrial	 3.3	 bl
36	 6	 0	 x	 LineStimuli//3.3/stimNo122r0c0v3.3.jpg	 r	 2.421	 GoodTrial	 3.3	 bl
37	 6	 0	 x	 LineStimuli//3.3/stimNo126r0c0v3.3.jpg	 r	 2.306	 GoodTrial	 3.3	 bl
38	 6	 0	 x	 LineStimuli//3.3/stimNo143r0c0v3.3.jpg	 r	 1.807	 GoodTrial	 3.3	 bl
39	 6	 0	 x	 LineStimuli//3.3/stimNo149r0c0v3.3.jpg	 r	 1.744	 GoodTrial	 3.3	 bl
40	 6	 0	 x	 LineStimuli//3.3/stimNo146r0c0v3.3.jpg	 r	 1.716	 GoodTrial	 3.3	 bl
41	 6	 1	 right	 LineStimuli//3.3/stimNo96r8c18v3.3.jpg	 l	 1.923	 GoodTrial	 3.3	 bl
42	 6	 1	 left	 LineStimuli//3.3/stimNo100r3c3v3.3.jpg	 l	 1.825	 GoodTrial	 3.3	 bl
43	 6	 1	 left	 LineStimuli//3.3/stimNo90r2c9v3.3.jpg	 l	 1.901	 GoodTrial	 3.3	 bl
44	 6	 0	 x	 LineStimuli//3.3/stimNo156r0c0v3.3.jpg	 r	 2.154	 GoodTrial	 3.3	 bl
45	 6	 1	 right	 LineStimuli//3.3/stimNo118r3c16v3.3.jpg	 l	 2.860	 GoodTrial	 3.3	 bl
46	 6	 1	 left	 LineStimuli//3.3/stimNo106r9c9v3.3.jpg	 l	 2.588	 GoodTrial	 3.3	 bl
47	 6	 0	 x	 LineStimuli//3.3/stimNo145r0c0v3.3.jpg	 r	 2.914	 GoodTrial	 3.3	 bl
48	 6	 0	 x	 LineStimuli//3.3/stimNo159r0c0v3.3.jpg	 r	 2.056	 GoodTrial	 3.3	 bl
49	 6	 1	 left	 LineStimuli//3.3/stimNo83r8c3v3.3.jpg	 l	 1.845	 GoodTrial	 3.3	 bl
50	 6	 0	 x	 LineStimuli//3.3/stimNo141r0c0v3.3.jpg	 r	 1.837	 GoodTrial	 3.3	 bl
1	 7	 1	 left	 LineStimuli//4.3/stimNo83r4c2v4.3.jpg	 l	 1.887	 GoodTrial	 4.3	 bl
2	 7	 0	 x	 LineStimuli//4.3/stimNo141r0c0v4.3.jpg	 r	 1.973	 GoodTrial	 4.3	 bl
3	 7	 0	 x	 LineStimuli//4.3/stimNo121r0c0v4.3.jpg	 r	 2.021	 GoodTrial	 4.3	 bl
4	 7	 0	 x	 LineStimuli//4.3/stimNo130r0c0v4.3.jpg	 r	 2.097	 GoodTrial	 4.3	 bl
5	 7	 1	 left	 LineStimuli//4.3/stimNo108r5c8v4.3.jpg	 l	 1.765	 GoodTrial	 4.3	 bl
6	 7	 1	 right	 LineStimuli//4.3/stimNo116r5c13v4.3.jpg	 l	 1.776	 GoodTrial	 4.3	 bl
7	 7	 1	 left	 LineStimuli//4.3/stimNo105r14c6v4.3.jpg	 l	 1.721	 GoodTrial	 4.3	 bl
8	 7	 0	 x	 LineStimuli//4.3/stimNo125r0c0v4.3.jpg	 r	 3.506	 GoodTrial	 4.3	 bl
9	 7	 0	 x	 LineStimuli//4.3/stimNo124r0c0v4.3.jpg	 r	 1.929	 GoodTrial	 4.3	 bl
10	 7	 0	 x	 LineStimuli//4.3/stimNo142r0c0v4.3.jpg	 r	 1.925	 GoodTrial	 4.3	 bl
11	 7	 1	 left	 LineStimuli//4.3/stimNo101r5c5v4.3.jpg	 x	 0.368	 EARLY_RESPONSE	 4.3	 bl
12	 7	 0	 x	 LineStimuli//4.3/stimNo153r0c0v4.3.jpg	 x	 0.696	 EARLY_RESPONSE	 4.3	 bl
13	 7	 0	 x	 LineStimuli//4.3/stimNo148r0c0v4.3.jpg	 x	 0.784	 EARLY_RESPONSE	 4.3	 bl
14	 7	 1	 right	 LineStimuli//4.3/stimNo82r7c18v4.3.jpg	 x	 0.280	 EARLY_RESPONSE	 4.3	 bl
15	 7	 0	 x	 LineStimuli//4.3/stimNo158r0c0v4.3.jpg	 x	 0.080	 EARLY_RESPONSE	 4.3	 bl
16	 7	 1	 right	 LineStimuli//4.3/stimNo91r9c13v4.3.jpg	 l	 2.219	 GoodTrial	 4.3	 bl
17	 7	 1	 left	 LineStimuli//4.3/stimNo85r3c5v4.3.jpg	 l	 1.942	 GoodTrial	 4.3	 bl
18	 7	 1	 right	 LineStimuli//4.3/stimNo99r14c18v4.3.jpg	 l	 2.645	 GoodTrial	 4.3	 bl
19	 7	 0	 x	 LineStimuli//4.3/stimNo151r0c0v4.3.jpg	 r	 2.735	 GoodTrial	 4.3	 bl
20	 7	 1	 left	 LineStimuli//4.3/stimNo113r11c7v4.3.jpg	 l	 3.576	 GoodTrial	 4.3	 bl
21	 7	 0	 x	 LineStimuli//4.3/stimNo136r0c0v4.3.jpg	 x	 1.048	 GoodTrial	 4.3	 bl
22	 7	 0	 x	 LineStimuli//4.3/stimNo122r0c0v4.3.jpg	 r	 1.941	 GoodTrial	 4.3	 bl
23	 7	 0	 x	 LineStimuli//4.3/stimNo155r0c0v4.3.jpg	 r	 1.983	 GoodTrial	 4.3	 bl
24	 7	 0	 x	 LineStimuli//4.3/stimNo123r0c0v4.3.jpg	 r	 1.697	 GoodTrial	 4.3	 bl
25	 7	 1	 right	 LineStimuli//4.3/stimNo112r10c16v4.3.jpg	 l	 1.923	 GoodTrial	 4.3	 bl
26	 7	 0	 x	 LineStimuli//4.3/stimNo144r0c0v4.3.jpg	 r	 1.900	 GoodTrial	 4.3	 bl
27	 7	 0	 x	 LineStimuli//4.3/stimNo154r0c0v4.3.jpg	 r	 2.927	 GoodTrial	 4.3	 bl
28	 7	 0	 x	 LineStimuli//4.3/stimNo149r0c0v4.3.jpg	 r	 1.868	 GoodTrial	 4.3	 bl
29	 7	 1	 left	 LineStimuli//4.3/stimNo104r15c2v4.3.jpg	 x	 1.910	 GoodTrial	 4.3	 bl
30	 7	 1	 right	 LineStimuli//4.3/stimNo92r2c20v4.3.jpg	 l	 2.399	 GoodTrial	 4.3	 bl
31	 7	 1	 left	 LineStimuli//4.3/stimNo93r9c9v4.3.jpg	 l	 1.592	 GoodTrial	 4.3	 bl
32	 7	 0	 x	 LineStimuli//4.3/stimNo160r0c0v4.3.jpg	 r	 1.984	 GoodTrial	 4.3	 bl
33	 7	 1	 left	 LineStimuli//4.3/stimNo106r8c2v4.3.jpg	 l	 1.665	 GoodTrial	 4.3	 bl
34	 7	 1	 left	 LineStimuli//4.3/stimNo110r6c7v4.3.jpg	 l	 1.772	 GoodTrial	 4.3	 bl
35	 7	 0	 x	 LineStimuli//4.3/stimNo147r0c0v4.3.jpg	 r	 2.000	 GoodTrial	 4.3	 bl
36	 7	 0	 x	 LineStimuli//4.3/stimNo143r0c0v4.3.jpg	 r	 1.980	 GoodTrial	 4.3	 bl
37	 7	 0	 x	 LineStimuli//4.3/stimNo135r0c0v4.3.jpg	 r	 1.745	 GoodTrial	 4.3	 bl
38	 7	 1	 left	 LineStimuli//4.3/stimNo98r3c8v4.3.jpg	 l	 1.607	 GoodTrial	 4.3	 bl
39	 7	 1	 right	 LineStimuli//4.3/stimNo96r4c19v4.3.jpg	 l	 1.597	 GoodTrial	 4.3	 bl
40	 7	 0	 x	 LineStimuli//4.3/stimNo131r0c0v4.3.jpg	 r	 1.853	 GoodTrial	 4.3	 bl
41	 7	 0	 x	 LineStimuli//4.3/stimNo146r0c0v4.3.jpg	 r	 1.765	 GoodTrial	 4.3	 bl
42	 7	 0	 x	 LineStimuli//4.3/stimNo139r0c0v4.3.jpg	 r	 1.713	 GoodTrial	 4.3	 bl
43	 7	 1	 left	 LineStimuli//4.3/stimNo100r8c3v4.3.jpg	 l	 1.612	 GoodTrial	 4.3	 bl
44	 7	 1	 right	 LineStimuli//4.3/stimNo102r10c19v4.3.jpg	 l	 1.650	 GoodTrial	 4.3	 bl
45	 7	 1	 right	 LineStimuli//4.3/stimNo109r15c15v4.3.jpg	 l	 1.662	 GoodTrial	 4.3	 bl
46	 7	 0	 x	 LineStimuli//4.3/stimNo134r0c0v4.3.jpg	 r	 2.067	 GoodTrial	 4.3	 bl
47	 7	 1	 right	 LineStimuli//4.3/stimNo118r11c13v4.3.jpg	 l	 1.648	 GoodTrial	 4.3	 bl
48	 7	 1	 right	 LineStimuli//4.3/stimNo114r10c15v4.3.jpg	 l	 1.551	 GoodTrial	 4.3	 bl
49	 7	 0	 x	 LineStimuli//4.3/stimNo132r0c0v4.3.jpg	 r	 1.848	 GoodTrial	 4.3	 bl
50	 7	 0	 x	 LineStimuli//4.3/stimNo126r0c0v4.3.jpg	 r	 2.079	 GoodTrial	 4.3	 bl
