Trial	Block	Target_pr	Target_side	Name	Key	RT	Message	Block_Type	Condition
1	 1	 1	 left	 LineStimuli//4.3/stimNo101r5c5v4.3.jpg	 l	 28.742	 GoodTrial	 4.3	 bl
2	 1	 1	 left	 LineStimuli//4.3/stimNo98r3c8v4.3.jpg	 l	 2.293	 GoodTrial	 4.3	 bl
3	 1	 0	 x	 LineStimuli//4.3/stimNo156r0c0v4.3.jpg	 l	 8.286	 GoodTrial	 4.3	 bl
4	 1	 0	 x	 LineStimuli//4.3/stimNo158r0c0v4.3.jpg	 l	 6.710	 GoodTrial	 4.3	 bl
5	 1	 0	 x	 LineStimuli//4.3/stimNo140r0c0v4.3.jpg	 l	 12.767	 GoodTrial	 4.3	 bl
6	 1	 1	 right	 LineStimuli//4.3/stimNo120r8c18v4.3.jpg	 r	 3.320	 GoodTrial	 4.3	 bl
7	 1	 0	 x	 LineStimuli//4.3/stimNo154r0c0v4.3.jpg	 r	 5.816	 GoodTrial	 4.3	 bl
8	 1	 1	 right	 LineStimuli//4.3/stimNo99r14c18v4.3.jpg	 l	 2.566	 GoodTrial	 4.3	 bl
9	 1	 1	 right	 LineStimuli//4.3/stimNo97r6c21v4.3.jpg	 l	 2.553	 GoodTrial	 4.3	 bl
10	 1	 0	 x	 LineStimuli//4.3/stimNo157r0c0v4.3.jpg	 r	 3.912	 GoodTrial	 4.3	 bl
11	 1	 1	 left	 LineStimuli//4.3/stimNo106r8c2v4.3.jpg	 l	 2.029	 GoodTrial	 4.3	 bl
12	 1	 0	 x	 LineStimuli//4.3/stimNo124r0c0v4.3.jpg	 r	 3.183	 GoodTrial	 4.3	 bl
13	 1	 1	 left	 LineStimuli//4.3/stimNo88r10c3v4.3.jpg	 l	 1.976	 GoodTrial	 4.3	 bl
14	 1	 0	 x	 LineStimuli//4.3/stimNo149r0c0v4.3.jpg	 r	 2.034	 GoodTrial	 4.3	 bl
15	 1	 1	 left	 LineStimuli//4.3/stimNo90r10c4v4.3.jpg	 l	 1.898	 GoodTrial	 4.3	 bl
16	 1	 0	 x	 LineStimuli//4.3/stimNo148r0c0v4.3.jpg	 r	 2.005	 GoodTrial	 4.3	 bl
17	 1	 0	 x	 LineStimuli//4.3/stimNo133r0c0v4.3.jpg	 r	 1.910	 GoodTrial	 4.3	 bl
18	 1	 0	 x	 LineStimuli//4.3/stimNo130r0c0v4.3.jpg	 r	 2.544	 GoodTrial	 4.3	 bl
19	 1	 0	 x	 LineStimuli//4.3/stimNo159r0c0v4.3.jpg	 r	 2.328	 GoodTrial	 4.3	 bl
20	 1	 1	 left	 LineStimuli//4.3/stimNo86r7c3v4.3.jpg	 l	 2.096	 GoodTrial	 4.3	 bl
21	 1	 0	 x	 LineStimuli//4.3/stimNo126r0c0v4.3.jpg	 r	 1.867	 GoodTrial	 4.3	 bl
22	 1	 0	 x	 LineStimuli//4.3/stimNo125r0c0v4.3.jpg	 r	 1.624	 GoodTrial	 4.3	 bl
23	 1	 1	 left	 LineStimuli//4.3/stimNo95r11c9v4.3.jpg	 l	 1.888	 GoodTrial	 4.3	 bl
24	 1	 0	 x	 LineStimuli//4.3/stimNo127r0c0v4.3.jpg	 r	 1.809	 GoodTrial	 4.3	 bl
25	 1	 1	 right	 LineStimuli//4.3/stimNo109r15c15v4.3.jpg	 l	 1.903	 GoodTrial	 4.3	 bl
26	 1	 0	 x	 LineStimuli//4.3/stimNo153r0c0v4.3.jpg	 r	 2.293	 GoodTrial	 4.3	 bl
27	 1	 1	 right	 LineStimuli//4.3/stimNo102r10c19v4.3.jpg	 l	 1.710	 GoodTrial	 4.3	 bl
28	 1	 0	 x	 LineStimuli//4.3/stimNo129r0c0v4.3.jpg	 r	 2.560	 GoodTrial	 4.3	 bl
29	 1	 0	 x	 LineStimuli//4.3/stimNo151r0c0v4.3.jpg	 r	 2.251	 GoodTrial	 4.3	 bl
30	 1	 1	 right	 LineStimuli//4.3/stimNo92r2c20v4.3.jpg	 l	 1.691	 GoodTrial	 4.3	 bl
31	 1	 0	 x	 LineStimuli//4.3/stimNo145r0c0v4.3.jpg	 r	 1.773	 GoodTrial	 4.3	 bl
32	 1	 1	 right	 LineStimuli//4.3/stimNo81r10c14v4.3.jpg	 l	 1.844	 GoodTrial	 4.3	 bl
33	 1	 0	 x	 LineStimuli//4.3/stimNo132r0c0v4.3.jpg	 r	 2.532	 GoodTrial	 4.3	 bl
34	 1	 1	 left	 LineStimuli//4.3/stimNo100r8c3v4.3.jpg	 l	 2.058	 GoodTrial	 4.3	 bl
35	 1	 1	 left	 LineStimuli//4.3/stimNo113r11c7v4.3.jpg	 l	 1.893	 GoodTrial	 4.3	 bl
36	 1	 0	 x	 LineStimuli//4.3/stimNo134r0c0v4.3.jpg	 r	 2.526	 GoodTrial	 4.3	 bl
37	 1	 1	 left	 LineStimuli//4.3/stimNo103r10c4v4.3.jpg	 l	 1.813	 GoodTrial	 4.3	 bl
38	 1	 1	 right	 LineStimuli//4.3/stimNo118r11c13v4.3.jpg	 l	 1.707	 GoodTrial	 4.3	 bl
39	 1	 0	 x	 LineStimuli//4.3/stimNo137r0c0v4.3.jpg	 r	 1.830	 GoodTrial	 4.3	 bl
40	 1	 1	 left	 LineStimuli//4.3/stimNo85r3c5v4.3.jpg	 l	 1.592	 GoodTrial	 4.3	 bl
41	 1	 1	 left	 LineStimuli//4.3/stimNo108r5c8v4.3.jpg	 l	 1.562	 GoodTrial	 4.3	 bl
42	 1	 0	 x	 LineStimuli//4.3/stimNo155r0c0v4.3.jpg	 r	 1.896	 GoodTrial	 4.3	 bl
43	 1	 0	 x	 LineStimuli//4.3/stimNo141r0c0v4.3.jpg	 r	 2.265	 GoodTrial	 4.3	 bl
44	 1	 0	 x	 LineStimuli//4.3/stimNo121r0c0v4.3.jpg	 r	 3.857	 GoodTrial	 4.3	 bl
45	 1	 0	 x	 LineStimuli//4.3/stimNo123r0c0v4.3.jpg	 r	 1.709	 GoodTrial	 4.3	 bl
46	 1	 1	 right	 LineStimuli//4.3/stimNo116r5c13v4.3.jpg	 l	 1.741	 GoodTrial	 4.3	 bl
47	 1	 0	 x	 LineStimuli//4.3/stimNo150r0c0v4.3.jpg	 r	 2.328	 GoodTrial	 4.3	 bl
48	 1	 1	 left	 LineStimuli//4.3/stimNo111r10c9v4.3.jpg	 l	 1.732	 GoodTrial	 4.3	 bl
49	 1	 1	 right	 LineStimuli//4.3/stimNo82r7c18v4.3.jpg	 l	 1.674	 GoodTrial	 4.3	 bl
50	 1	 0	 x	 LineStimuli//4.3/stimNo152r0c0v4.3.jpg	 r	 1.768	 GoodTrial	 4.3	 bl
1	 2	 0	 x	 LineStimuli//2.8/stimNo142r0c0v2.8.jpg	 r	 3.274	 GoodTrial	 2.8	 bl
2	 2	 1	 right	 LineStimuli//2.8/stimNo85r4c15v2.8.jpg	 l	 2.024	 GoodTrial	 2.8	 bl
3	 2	 1	 left	 LineStimuli//2.8/stimNo113r9c5v2.8.jpg	 r	 2.182	 GoodTrial	 2.8	 bl
4	 2	 0	 x	 LineStimuli//2.8/stimNo148r0c0v2.8.jpg	 l	 8.431	 GoodTrial	 2.8	 bl
5	 2	 1	 left	 LineStimuli//2.8/stimNo97r11c4v2.8.jpg	 r	 4.404	 GoodTrial	 2.8	 bl
6	 2	 1	 right	 LineStimuli//2.8/stimNo111r9c15v2.8.jpg	 l	 5.716	 GoodTrial	 2.8	 bl
7	 2	 0	 x	 LineStimuli//2.8/stimNo154r0c0v2.8.jpg	 l	 3.644	 GoodTrial	 2.8	 bl
8	 2	 1	 left	 LineStimuli//2.8/stimNo87r11c8v2.8.jpg	 l	 4.719	 GoodTrial	 2.8	 bl
9	 2	 1	 left	 LineStimuli//2.8/stimNo82r4c6v2.8.jpg	 l	 2.722	 GoodTrial	 2.8	 bl
10	 2	 1	 left	 LineStimuli//2.8/stimNo94r13c7v2.8.jpg	 l	 2.401	 GoodTrial	 2.8	 bl
11	 2	 1	 right	 LineStimuli//2.8/stimNo95r9c18v2.8.jpg	 l	 2.000	 GoodTrial	 2.8	 bl
12	 2	 0	 x	 LineStimuli//2.8/stimNo139r0c0v2.8.jpg	 l	 3.064	 GoodTrial	 2.8	 bl
13	 2	 0	 x	 LineStimuli//2.8/stimNo153r0c0v2.8.jpg	 r	 3.884	 GoodTrial	 2.8	 bl
14	 2	 0	 x	 LineStimuli//2.8/stimNo138r0c0v2.8.jpg	 r	 4.438	 GoodTrial	 2.8	 bl
15	 2	 1	 right	 LineStimuli//2.8/stimNo117r11c17v2.8.jpg	 l	 2.471	 GoodTrial	 2.8	 bl
16	 2	 0	 x	 LineStimuli//2.8/stimNo123r0c0v2.8.jpg	 r	 3.094	 GoodTrial	 2.8	 bl
17	 2	 0	 x	 LineStimuli//2.8/stimNo160r0c0v2.8.jpg	 r	 2.068	 GoodTrial	 2.8	 bl
18	 2	 0	 x	 LineStimuli//2.8/stimNo122r0c0v2.8.jpg	 r	 1.764	 GoodTrial	 2.8	 bl
19	 2	 1	 left	 LineStimuli//2.8/stimNo91r2c3v2.8.jpg	 r	 1.580	 GoodTrial	 2.8	 bl
20	 2	 0	 x	 LineStimuli//2.8/stimNo132r0c0v2.8.jpg	 r	 3.573	 GoodTrial	 2.8	 bl
21	 2	 1	 left	 LineStimuli//2.8/stimNo96r6c9v2.8.jpg	 l	 2.395	 GoodTrial	 2.8	 bl
22	 2	 0	 x	 LineStimuli//2.8/stimNo126r0c0v2.8.jpg	 r	 4.650	 GoodTrial	 2.8	 bl
23	 2	 1	 left	 LineStimuli//2.8/stimNo98r15c2v2.8.jpg	 l	 2.032	 GoodTrial	 2.8	 bl
24	 2	 1	 right	 LineStimuli//2.8/stimNo110r7c14v2.8.jpg	 l	 2.113	 GoodTrial	 2.8	 bl
25	 2	 1	 right	 LineStimuli//2.8/stimNo101r12c16v2.8.jpg	 l	 1.912	 GoodTrial	 2.8	 bl
26	 2	 1	 left	 LineStimuli//2.8/stimNo83r12c4v2.8.jpg	 l	 1.820	 GoodTrial	 2.8	 bl
27	 2	 1	 right	 LineStimuli//2.8/stimNo109r6c18v2.8.jpg	 l	 1.799	 GoodTrial	 2.8	 bl
28	 2	 0	 x	 LineStimuli//2.8/stimNo159r0c0v2.8.jpg	 r	 4.077	 GoodTrial	 2.8	 bl
29	 2	 0	 x	 LineStimuli//2.8/stimNo152r0c0v2.8.jpg	 r	 3.496	 GoodTrial	 2.8	 bl
30	 2	 1	 left	 LineStimuli//2.8/stimNo108r13c6v2.8.jpg	 l	 2.002	 GoodTrial	 2.8	 bl
31	 2	 0	 x	 LineStimuli//2.8/stimNo156r0c0v2.8.jpg	 r	 4.548	 GoodTrial	 2.8	 bl
32	 2	 1	 left	 LineStimuli//2.8/stimNo105r5c4v2.8.jpg	 l	 1.762	 GoodTrial	 2.8	 bl
33	 2	 0	 x	 LineStimuli//2.8/stimNo140r0c0v2.8.jpg	 r	 2.295	 GoodTrial	 2.8	 bl
34	 2	 0	 x	 LineStimuli//2.8/stimNo136r0c0v2.8.jpg	 r	 2.788	 GoodTrial	 2.8	 bl
35	 2	 1	 right	 LineStimuli//2.8/stimNo114r8c19v2.8.jpg	 l	 2.139	 GoodTrial	 2.8	 bl
36	 2	 0	 x	 LineStimuli//2.8/stimNo128r0c0v2.8.jpg	 l	 2.441	 GoodTrial	 2.8	 bl
37	 2	 1	 left	 LineStimuli//2.8/stimNo104r8c6v2.8.jpg	 x	 0.344	 EARLY_RESPONSE	 2.8	 bl
38	 2	 1	 right	 LineStimuli//2.8/stimNo106r13c20v2.8.jpg	 x	 0.873	 EARLY_RESPONSE	 2.8	 bl
39	 2	 0	 x	 LineStimuli//2.8/stimNo144r0c0v2.8.jpg	 r	 3.031	 GoodTrial	 2.8	 bl
40	 2	 1	 right	 LineStimuli//2.8/stimNo90r13c21v2.8.jpg	 r	 1.786	 GoodTrial	 2.8	 bl
41	 2	 0	 x	 LineStimuli//2.8/stimNo145r0c0v2.8.jpg	 r	 4.127	 GoodTrial	 2.8	 bl
42	 2	 0	 x	 LineStimuli//2.8/stimNo155r0c0v2.8.jpg	 r	 4.445	 GoodTrial	 2.8	 bl
43	 2	 0	 x	 LineStimuli//2.8/stimNo158r0c0v2.8.jpg	 r	 3.367	 GoodTrial	 2.8	 bl
44	 2	 0	 x	 LineStimuli//2.8/stimNo121r0c0v2.8.jpg	 r	 5.374	 GoodTrial	 2.8	 bl
45	 2	 1	 left	 LineStimuli//2.8/stimNo102r3c2v2.8.jpg	 l	 2.420	 GoodTrial	 2.8	 bl
46	 2	 0	 x	 LineStimuli//2.8/stimNo149r0c0v2.8.jpg	 r	 3.142	 GoodTrial	 2.8	 bl
47	 2	 1	 left	 LineStimuli//2.8/stimNo107r5c6v2.8.jpg	 l	 2.086	 GoodTrial	 2.8	 bl
48	 2	 0	 x	 LineStimuli//2.8/stimNo150r0c0v2.8.jpg	 r	 2.564	 GoodTrial	 2.8	 bl
49	 2	 0	 x	 LineStimuli//2.8/stimNo137r0c0v2.8.jpg	 r	 2.599	 GoodTrial	 2.8	 bl
50	 2	 0	 x	 LineStimuli//2.8/stimNo135r0c0v2.8.jpg	 r	 1.691	 GoodTrial	 2.8	 bl
1	 3	 1	 right	 LineStimuli//3.8/stimNo94r6c17v3.8.jpg	 l	 2.562	 GoodTrial	 3.8	 bl
2	 3	 0	 x	 LineStimuli//3.8/stimNo151r0c0v3.8.jpg	 r	 2.090	 GoodTrial	 3.8	 bl
3	 3	 1	 left	 LineStimuli//3.8/stimNo104r12c8v3.8.jpg	 r	 1.728	 GoodTrial	 3.8	 bl
4	 3	 1	 right	 LineStimuli//3.8/stimNo96r2c13v3.8.jpg	 l	 2.125	 GoodTrial	 3.8	 bl
5	 3	 1	 right	 LineStimuli//3.8/stimNo102r10c17v3.8.jpg	 l	 1.715	 GoodTrial	 3.8	 bl
6	 3	 1	 right	 LineStimuli//3.8/stimNo107r9c18v3.8.jpg	 l	 1.653	 GoodTrial	 3.8	 bl
7	 3	 0	 x	 LineStimuli//3.8/stimNo133r0c0v3.8.jpg	 r	 2.766	 GoodTrial	 3.8	 bl
8	 3	 0	 x	 LineStimuli//3.8/stimNo156r0c0v3.8.jpg	 r	 2.008	 GoodTrial	 3.8	 bl
9	 3	 0	 x	 LineStimuli//3.8/stimNo147r0c0v3.8.jpg	 r	 2.593	 GoodTrial	 3.8	 bl
10	 3	 1	 right	 LineStimuli//3.8/stimNo88r10c17v3.8.jpg	 l	 1.772	 GoodTrial	 3.8	 bl
11	 3	 1	 right	 LineStimuli//3.8/stimNo81r3c21v3.8.jpg	 l	 2.029	 GoodTrial	 3.8	 bl
12	 3	 0	 x	 LineStimuli//3.8/stimNo126r0c0v3.8.jpg	 r	 1.817	 GoodTrial	 3.8	 bl
13	 3	 1	 right	 LineStimuli//3.8/stimNo82r9c21v3.8.jpg	 l	 1.651	 GoodTrial	 3.8	 bl
14	 3	 0	 x	 LineStimuli//3.8/stimNo138r0c0v3.8.jpg	 r	 1.811	 GoodTrial	 3.8	 bl
15	 3	 1	 right	 LineStimuli//3.8/stimNo85r3c13v3.8.jpg	 l	 1.570	 GoodTrial	 3.8	 bl
16	 3	 0	 x	 LineStimuli//3.8/stimNo127r0c0v3.8.jpg	 r	 1.994	 GoodTrial	 3.8	 bl
17	 3	 1	 right	 LineStimuli//3.8/stimNo92r6c21v3.8.jpg	 l	 1.569	 GoodTrial	 3.8	 bl
18	 3	 0	 x	 LineStimuli//3.8/stimNo123r0c0v3.8.jpg	 r	 1.811	 GoodTrial	 3.8	 bl
19	 3	 1	 left	 LineStimuli//3.8/stimNo119r9c8v3.8.jpg	 l	 1.521	 GoodTrial	 3.8	 bl
20	 3	 0	 x	 LineStimuli//3.8/stimNo131r0c0v3.8.jpg	 l	 2.860	 GoodTrial	 3.8	 bl
21	 3	 1	 right	 LineStimuli//3.8/stimNo87r6c13v3.8.jpg	 l	 1.544	 GoodTrial	 3.8	 bl
22	 3	 0	 x	 LineStimuli//3.8/stimNo152r0c0v3.8.jpg	 r	 1.734	 GoodTrial	 3.8	 bl
23	 3	 0	 x	 LineStimuli//3.8/stimNo159r0c0v3.8.jpg	 r	 2.701	 GoodTrial	 3.8	 bl
24	 3	 1	 left	 LineStimuli//3.8/stimNo120r5c3v3.8.jpg	 l	 1.692	 GoodTrial	 3.8	 bl
25	 3	 1	 right	 LineStimuli//3.8/stimNo95r5c21v3.8.jpg	 l	 1.669	 GoodTrial	 3.8	 bl
26	 3	 1	 left	 LineStimuli//3.8/stimNo116r7c3v3.8.jpg	 l	 1.640	 GoodTrial	 3.8	 bl
27	 3	 0	 x	 LineStimuli//3.8/stimNo146r0c0v3.8.jpg	 r	 3.820	 GoodTrial	 3.8	 bl
28	 3	 1	 left	 LineStimuli//3.8/stimNo83r9c9v3.8.jpg	 l	 1.883	 GoodTrial	 3.8	 bl
29	 3	 1	 left	 LineStimuli//3.8/stimNo105r2c6v3.8.jpg	 l	 1.701	 GoodTrial	 3.8	 bl
30	 3	 1	 right	 LineStimuli//3.8/stimNo91r10c16v3.8.jpg	 l	 1.588	 GoodTrial	 3.8	 bl
31	 3	 0	 x	 LineStimuli//3.8/stimNo155r0c0v3.8.jpg	 r	 1.898	 GoodTrial	 3.8	 bl
32	 3	 1	 left	 LineStimuli//3.8/stimNo100r13c6v3.8.jpg	 l	 1.623	 GoodTrial	 3.8	 bl
33	 3	 1	 left	 LineStimuli//3.8/stimNo97r15c9v3.8.jpg	 r	 1.714	 GoodTrial	 3.8	 bl
34	 3	 0	 x	 LineStimuli//3.8/stimNo128r0c0v3.8.jpg	 r	 2.180	 GoodTrial	 3.8	 bl
35	 3	 1	 right	 LineStimuli//3.8/stimNo114r10c14v3.8.jpg	 l	 1.613	 GoodTrial	 3.8	 bl
36	 3	 0	 x	 LineStimuli//3.8/stimNo154r0c0v3.8.jpg	 r	 2.199	 GoodTrial	 3.8	 bl
37	 3	 1	 left	 LineStimuli//3.8/stimNo106r9c9v3.8.jpg	 l	 1.734	 GoodTrial	 3.8	 bl
38	 3	 0	 x	 LineStimuli//3.8/stimNo143r0c0v3.8.jpg	 r	 1.859	 GoodTrial	 3.8	 bl
39	 3	 0	 x	 LineStimuli//3.8/stimNo142r0c0v3.8.jpg	 r	 1.856	 GoodTrial	 3.8	 bl
40	 3	 1	 left	 LineStimuli//3.8/stimNo89r10c7v3.8.jpg	 l	 1.567	 GoodTrial	 3.8	 bl
41	 3	 1	 left	 LineStimuli//3.8/stimNo110r7c9v3.8.jpg	 l	 1.633	 GoodTrial	 3.8	 bl
42	 3	 1	 left	 LineStimuli//3.8/stimNo118r4c8v3.8.jpg	 l	 1.706	 GoodTrial	 3.8	 bl
43	 3	 1	 right	 LineStimuli//3.8/stimNo90r8c17v3.8.jpg	 l	 1.918	 GoodTrial	 3.8	 bl
44	 3	 0	 x	 LineStimuli//3.8/stimNo148r0c0v3.8.jpg	 r	 1.872	 GoodTrial	 3.8	 bl
45	 3	 1	 left	 LineStimuli//3.8/stimNo93r8c2v3.8.jpg	 l	 1.568	 GoodTrial	 3.8	 bl
46	 3	 0	 x	 LineStimuli//3.8/stimNo144r0c0v3.8.jpg	 r	 2.017	 GoodTrial	 3.8	 bl
47	 3	 1	 left	 LineStimuli//3.8/stimNo98r2c9v3.8.jpg	 l	 1.563	 GoodTrial	 3.8	 bl
48	 3	 0	 x	 LineStimuli//3.8/stimNo153r0c0v3.8.jpg	 r	 1.763	 GoodTrial	 3.8	 bl
49	 3	 0	 x	 LineStimuli//3.8/stimNo125r0c0v3.8.jpg	 r	 1.864	 GoodTrial	 3.8	 bl
50	 3	 0	 x	 LineStimuli//3.8/stimNo158r0c0v3.8.jpg	 r	 1.704	 GoodTrial	 3.8	 bl
1	 4	 0	 x	 LineStimuli//2.3/stimNo122r0c0v2.3.jpg	 x	 1.383	 GoodTrial	 2.3	 bl
2	 4	 1	 left	 LineStimuli//2.3/stimNo112r3c2v2.3.jpg	 l	 2.606	 GoodTrial	 2.3	 bl
3	 4	 1	 left	 LineStimuli//2.3/stimNo117r11c8v2.3.jpg	 l	 2.032	 GoodTrial	 2.3	 bl
4	 4	 0	 x	 LineStimuli//2.3/stimNo159r0c0v2.3.jpg	 r	 1.952	 GoodTrial	 2.3	 bl
5	 4	 1	 right	 LineStimuli//2.3/stimNo120r4c17v2.3.jpg	 l	 1.780	 GoodTrial	 2.3	 bl
6	 4	 0	 x	 LineStimuli//2.3/stimNo123r0c0v2.3.jpg	 r	 1.866	 GoodTrial	 2.3	 bl
7	 4	 0	 x	 LineStimuli//2.3/stimNo144r0c0v2.3.jpg	 r	 2.075	 GoodTrial	 2.3	 bl
8	 4	 0	 x	 LineStimuli//2.3/stimNo149r0c0v2.3.jpg	 r	 2.150	 GoodTrial	 2.3	 bl
9	 4	 0	 x	 LineStimuli//2.3/stimNo146r0c0v2.3.jpg	 r	 2.467	 GoodTrial	 2.3	 bl
10	 4	 0	 x	 LineStimuli//2.3/stimNo143r0c0v2.3.jpg	 r	 2.401	 GoodTrial	 2.3	 bl
11	 4	 0	 x	 LineStimuli//2.3/stimNo137r0c0v2.3.jpg	 r	 1.992	 GoodTrial	 2.3	 bl
12	 4	 1	 left	 LineStimuli//2.3/stimNo82r12c4v2.3.jpg	 r	 1.758	 GoodTrial	 2.3	 bl
13	 4	 1	 right	 LineStimuli//2.3/stimNo92r10c17v2.3.jpg	 l	 1.929	 GoodTrial	 2.3	 bl
14	 4	 0	 x	 LineStimuli//2.3/stimNo141r0c0v2.3.jpg	 r	 3.571	 GoodTrial	 2.3	 bl
15	 4	 1	 right	 LineStimuli//2.3/stimNo111r11c21v2.3.jpg	 l	 1.837	 GoodTrial	 2.3	 bl
16	 4	 0	 x	 LineStimuli//2.3/stimNo135r0c0v2.3.jpg	 r	 2.313	 GoodTrial	 2.3	 bl
17	 4	 0	 x	 LineStimuli//2.3/stimNo147r0c0v2.3.jpg	 r	 2.847	 GoodTrial	 2.3	 bl
18	 4	 0	 x	 LineStimuli//2.3/stimNo132r0c0v2.3.jpg	 r	 3.906	 GoodTrial	 2.3	 bl
19	 4	 0	 x	 LineStimuli//2.3/stimNo154r0c0v2.3.jpg	 r	 3.261	 GoodTrial	 2.3	 bl
20	 4	 1	 left	 LineStimuli//2.3/stimNo95r13c9v2.3.jpg	 x	 2.133	 GoodTrial	 2.3	 bl
21	 4	 0	 x	 LineStimuli//2.3/stimNo150r0c0v2.3.jpg	 x	 0.496	 EARLY_RESPONSE	 2.3	 bl
22	 4	 1	 right	 LineStimuli//2.3/stimNo99r2c13v2.3.jpg	 l	 1.936	 GoodTrial	 2.3	 bl
23	 4	 0	 x	 LineStimuli//2.3/stimNo138r0c0v2.3.jpg	 r	 3.437	 GoodTrial	 2.3	 bl
24	 4	 1	 right	 LineStimuli//2.3/stimNo98r12c21v2.3.jpg	 l	 2.008	 GoodTrial	 2.3	 bl
25	 4	 1	 left	 LineStimuli//2.3/stimNo115r7c3v2.3.jpg	 l	 1.731	 GoodTrial	 2.3	 bl
26	 4	 1	 left	 LineStimuli//2.3/stimNo100r8c6v2.3.jpg	 l	 1.725	 GoodTrial	 2.3	 bl
27	 4	 1	 right	 LineStimuli//2.3/stimNo110r15c19v2.3.jpg	 l	 1.960	 GoodTrial	 2.3	 bl
28	 4	 1	 left	 LineStimuli//2.3/stimNo97r3c3v2.3.jpg	 l	 2.661	 GoodTrial	 2.3	 bl
29	 4	 1	 right	 LineStimuli//2.3/stimNo118r4c17v2.3.jpg	 l	 1.592	 GoodTrial	 2.3	 bl
30	 4	 1	 left	 LineStimuli//2.3/stimNo96r3c3v2.3.jpg	 l	 1.751	 GoodTrial	 2.3	 bl
31	 4	 0	 x	 LineStimuli//2.3/stimNo124r0c0v2.3.jpg	 r	 3.014	 GoodTrial	 2.3	 bl
32	 4	 1	 left	 LineStimuli//2.3/stimNo119r3c2v2.3.jpg	 l	 1.708	 GoodTrial	 2.3	 bl
33	 4	 1	 right	 LineStimuli//2.3/stimNo109r2c17v2.3.jpg	 l	 1.587	 GoodTrial	 2.3	 bl
34	 4	 1	 left	 LineStimuli//2.3/stimNo113r3c8v2.3.jpg	 l	 1.500	 GoodTrial	 2.3	 bl
35	 4	 1	 right	 LineStimuli//2.3/stimNo90r14c21v2.3.jpg	 l	 1.693	 GoodTrial	 2.3	 bl
36	 4	 1	 right	 LineStimuli//2.3/stimNo103r11c21v2.3.jpg	 l	 1.578	 GoodTrial	 2.3	 bl
37	 4	 0	 x	 LineStimuli//2.3/stimNo126r0c0v2.3.jpg	 r	 1.943	 GoodTrial	 2.3	 bl
38	 4	 0	 x	 LineStimuli//2.3/stimNo129r0c0v2.3.jpg	 r	 2.270	 GoodTrial	 2.3	 bl
39	 4	 1	 right	 LineStimuli//2.3/stimNo101r8c14v2.3.jpg	 l	 1.906	 GoodTrial	 2.3	 bl
40	 4	 0	 x	 LineStimuli//2.3/stimNo121r0c0v2.3.jpg	 r	 1.756	 GoodTrial	 2.3	 bl
41	 4	 0	 x	 LineStimuli//2.3/stimNo152r0c0v2.3.jpg	 r	 1.701	 GoodTrial	 2.3	 bl
42	 4	 1	 left	 LineStimuli//2.3/stimNo114r7c8v2.3.jpg	 l	 1.898	 GoodTrial	 2.3	 bl
43	 4	 0	 x	 LineStimuli//2.3/stimNo158r0c0v2.3.jpg	 r	 1.789	 GoodTrial	 2.3	 bl
44	 4	 0	 x	 LineStimuli//2.3/stimNo134r0c0v2.3.jpg	 r	 1.698	 GoodTrial	 2.3	 bl
45	 4	 1	 right	 LineStimuli//2.3/stimNo84r15c14v2.3.jpg	 r	 2.212	 GoodTrial	 2.3	 bl
46	 4	 0	 x	 LineStimuli//2.3/stimNo128r0c0v2.3.jpg	 r	 3.127	 GoodTrial	 2.3	 bl
47	 4	 0	 x	 LineStimuli//2.3/stimNo148r0c0v2.3.jpg	 r	 3.673	 GoodTrial	 2.3	 bl
48	 4	 0	 x	 LineStimuli//2.3/stimNo151r0c0v2.3.jpg	 r	 4.096	 GoodTrial	 2.3	 bl
49	 4	 0	 x	 LineStimuli//2.3/stimNo157r0c0v2.3.jpg	 r	 3.362	 GoodTrial	 2.3	 bl
50	 4	 1	 right	 LineStimuli//2.3/stimNo105r14c14v2.3.jpg	 l	 3.129	 GoodTrial	 2.3	 bl
1	 5	 0	 x	 LineStimuli//1.5/stimNo153r0c0v1.5.jpg	 r	 2.935	 GoodTrial	 1.5	 bl
2	 5	 0	 x	 LineStimuli//1.5/stimNo142r0c0v1.5.jpg	 r	 2.869	 GoodTrial	 1.5	 bl
3	 5	 0	 x	 LineStimuli//1.5/stimNo128r0c0v1.5.jpg	 r	 1.739	 GoodTrial	 1.5	 bl
4	 5	 1	 left	 LineStimuli//1.5/stimNo117r7c8v1.5.jpg	 r	 1.739	 GoodTrial	 1.5	 bl
5	 5	 1	 right	 LineStimuli//1.5/stimNo92r6c18v1.5.jpg	 r	 3.863	 GoodTrial	 1.5	 bl
6	 5	 0	 x	 LineStimuli//1.5/stimNo131r0c0v1.5.jpg	 l	 3.251	 GoodTrial	 1.5	 bl
7	 5	 1	 right	 LineStimuli//1.5/stimNo81r6c17v1.5.jpg	 l	 3.913	 GoodTrial	 1.5	 bl
8	 5	 1	 left	 LineStimuli//1.5/stimNo120r14c2v1.5.jpg	 r	 4.400	 GoodTrial	 1.5	 bl
9	 5	 1	 left	 LineStimuli//1.5/stimNo113r4c4v1.5.jpg	 l	 2.262	 GoodTrial	 1.5	 bl
10	 5	 1	 left	 LineStimuli//1.5/stimNo85r2c5v1.5.jpg	 l	 14.405	 GoodTrial	 1.5	 bl
11	 5	 0	 x	 LineStimuli//1.5/stimNo158r0c0v1.5.jpg	 r	 4.208	 GoodTrial	 1.5	 bl
12	 5	 0	 x	 LineStimuli//1.5/stimNo154r0c0v1.5.jpg	 l	 13.534	 GoodTrial	 1.5	 bl
13	 5	 1	 left	 LineStimuli//1.5/stimNo112r9c5v1.5.jpg	 r	 3.610	 GoodTrial	 1.5	 bl
14	 5	 1	 left	 LineStimuli//1.5/stimNo94r10c6v1.5.jpg	 l	 2.639	 GoodTrial	 1.5	 bl
15	 5	 1	 right	 LineStimuli//1.5/stimNo103r13c17v1.5.jpg	 r	 3.991	 GoodTrial	 1.5	 bl
16	 5	 0	 x	 LineStimuli//1.5/stimNo156r0c0v1.5.jpg	 l	 3.669	 GoodTrial	 1.5	 bl
17	 5	 0	 x	 LineStimuli//1.5/stimNo121r0c0v1.5.jpg	 l	 6.636	 GoodTrial	 1.5	 bl
18	 5	 1	 right	 LineStimuli//1.5/stimNo86r6c16v1.5.jpg	 l	 2.249	 GoodTrial	 1.5	 bl
19	 5	 0	 x	 LineStimuli//1.5/stimNo155r0c0v1.5.jpg	 r	 12.552	 GoodTrial	 1.5	 bl
20	 5	 0	 x	 LineStimuli//1.5/stimNo136r0c0v1.5.jpg	 r	 8.939	 GoodTrial	 1.5	 bl
21	 5	 0	 x	 LineStimuli//1.5/stimNo137r0c0v1.5.jpg	 r	 12.184	 GoodTrial	 1.5	 bl
22	 5	 0	 x	 LineStimuli//1.5/stimNo129r0c0v1.5.jpg	 r	 12.320	 GoodTrial	 1.5	 bl
23	 5	 0	 x	 LineStimuli//1.5/stimNo145r0c0v1.5.jpg	 r	 8.150	 GoodTrial	 1.5	 bl
24	 5	 1	 right	 LineStimuli//1.5/stimNo105r3c18v1.5.jpg	 r	 8.488	 GoodTrial	 1.5	 bl
25	 5	 1	 left	 LineStimuli//1.5/stimNo87r12c5v1.5.jpg	 r	 13.094	 GoodTrial	 1.5	 bl
26	 5	 0	 x	 LineStimuli//1.5/stimNo133r0c0v1.5.jpg	 r	 9.804	 GoodTrial	 1.5	 bl
27	 5	 0	 x	 LineStimuli//1.5/stimNo143r0c0v1.5.jpg	 r	 9.300	 GoodTrial	 1.5	 bl
28	 5	 1	 left	 LineStimuli//1.5/stimNo109r8c6v1.5.jpg	 r	 7.544	 GoodTrial	 1.5	 bl
29	 5	 0	 x	 LineStimuli//1.5/stimNo146r0c0v1.5.jpg	 r	 7.435	 GoodTrial	 1.5	 bl
30	 5	 0	 x	 LineStimuli//1.5/stimNo123r0c0v1.5.jpg	 l	 3.692	 GoodTrial	 1.5	 bl
31	 5	 0	 x	 LineStimuli//1.5/stimNo150r0c0v1.5.jpg	 r	 3.171	 GoodTrial	 1.5	 bl
32	 5	 1	 right	 LineStimuli//1.5/stimNo104r5c18v1.5.jpg	 l	 6.596	 GoodTrial	 1.5	 bl
33	 5	 0	 x	 LineStimuli//1.5/stimNo122r0c0v1.5.jpg	 r	 4.199	 GoodTrial	 1.5	 bl
34	 5	 1	 right	 LineStimuli//1.5/stimNo101r5c20v1.5.jpg	 l	 4.938	 GoodTrial	 1.5	 bl
35	 5	 0	 x	 LineStimuli//1.5/stimNo144r0c0v1.5.jpg	 r	 5.005	 GoodTrial	 1.5	 bl
36	 5	 1	 right	 LineStimuli//1.5/stimNo98r8c21v1.5.jpg	 l	 5.371	 GoodTrial	 1.5	 bl
37	 5	 0	 x	 LineStimuli//1.5/stimNo130r0c0v1.5.jpg	 r	 1.879	 GoodTrial	 1.5	 bl
38	 5	 1	 left	 LineStimuli//1.5/stimNo110r7c3v1.5.jpg	 l	 3.980	 GoodTrial	 1.5	 bl
39	 5	 1	 right	 LineStimuli//1.5/stimNo100r6c20v1.5.jpg	 l	 4.447	 GoodTrial	 1.5	 bl
40	 5	 1	 left	 LineStimuli//1.5/stimNo99r10c3v1.5.jpg	 r	 4.046	 GoodTrial	 1.5	 bl
41	 5	 0	 x	 LineStimuli//1.5/stimNo140r0c0v1.5.jpg	 l	 5.501	 GoodTrial	 1.5	 bl
42	 5	 1	 right	 LineStimuli//1.5/stimNo108r13c15v1.5.jpg	 r	 2.105	 GoodTrial	 1.5	 bl
43	 5	 1	 right	 LineStimuli//1.5/stimNo82r11c15v1.5.jpg	 l	 2.861	 GoodTrial	 1.5	 bl
44	 5	 1	 right	 LineStimuli//1.5/stimNo111r7c17v1.5.jpg	 r	 6.037	 GoodTrial	 1.5	 bl
45	 5	 0	 x	 LineStimuli//1.5/stimNo147r0c0v1.5.jpg	 r	 1.838	 GoodTrial	 1.5	 bl
46	 5	 0	 x	 LineStimuli//1.5/stimNo126r0c0v1.5.jpg	 r	 2.952	 GoodTrial	 1.5	 bl
47	 5	 0	 x	 LineStimuli//1.5/stimNo138r0c0v1.5.jpg	 r	 3.820	 GoodTrial	 1.5	 bl
48	 5	 0	 x	 LineStimuli//1.5/stimNo124r0c0v1.5.jpg	 r	 3.060	 GoodTrial	 1.5	 bl
49	 5	 1	 left	 LineStimuli//1.5/stimNo88r6c7v1.5.jpg	 r	 2.760	 GoodTrial	 1.5	 bl
50	 5	 0	 x	 LineStimuli//1.5/stimNo148r0c0v1.5.jpg	 l	 3.275	 GoodTrial	 1.5	 bl
1	 6	 0	 x	 LineStimuli//3.3/stimNo143r0c0v3.3.jpg	 l	 4.817	 GoodTrial	 3.3	 bl
2	 6	 1	 right	 LineStimuli//3.3/stimNo84r6c16v3.3.jpg	 r	 1.673	 GoodTrial	 3.3	 bl
3	 6	 1	 right	 LineStimuli//3.3/stimNo113r13c15v3.3.jpg	 l	 1.688	 GoodTrial	 3.3	 bl
4	 6	 1	 left	 LineStimuli//3.3/stimNo119r15c7v3.3.jpg	 l	 1.912	 GoodTrial	 3.3	 bl
5	 6	 1	 right	 LineStimuli//3.3/stimNo114r11c21v3.3.jpg	 l	 1.752	 GoodTrial	 3.3	 bl
6	 6	 1	 left	 LineStimuli//3.3/stimNo95r15c8v3.3.jpg	 l	 1.572	 GoodTrial	 3.3	 bl
7	 6	 0	 x	 LineStimuli//3.3/stimNo159r0c0v3.3.jpg	 r	 1.910	 GoodTrial	 3.3	 bl
8	 6	 1	 right	 LineStimuli//3.3/stimNo107r2c17v3.3.jpg	 l	 2.002	 GoodTrial	 3.3	 bl
9	 6	 0	 x	 LineStimuli//3.3/stimNo132r0c0v3.3.jpg	 r	 2.096	 GoodTrial	 3.3	 bl
10	 6	 1	 right	 LineStimuli//3.3/stimNo99r6c17v3.3.jpg	 l	 1.624	 GoodTrial	 3.3	 bl
11	 6	 0	 x	 LineStimuli//3.3/stimNo151r0c0v3.3.jpg	 r	 1.723	 GoodTrial	 3.3	 bl
12	 6	 1	 left	 LineStimuli//3.3/stimNo81r15c8v3.3.jpg	 l	 1.692	 GoodTrial	 3.3	 bl
13	 6	 0	 x	 LineStimuli//3.3/stimNo140r0c0v3.3.jpg	 r	 1.789	 GoodTrial	 3.3	 bl
14	 6	 0	 x	 LineStimuli//3.3/stimNo134r0c0v3.3.jpg	 r	 1.815	 GoodTrial	 3.3	 bl
15	 6	 1	 left	 LineStimuli//3.3/stimNo85r6c4v3.3.jpg	 l	 1.546	 GoodTrial	 3.3	 bl
16	 6	 1	 left	 LineStimuli//3.3/stimNo109r15c7v3.3.jpg	 l	 1.666	 GoodTrial	 3.3	 bl
17	 6	 0	 x	 LineStimuli//3.3/stimNo146r0c0v3.3.jpg	 r	 1.676	 GoodTrial	 3.3	 bl
18	 6	 0	 x	 LineStimuli//3.3/stimNo145r0c0v3.3.jpg	 r	 1.717	 GoodTrial	 3.3	 bl
19	 6	 0	 x	 LineStimuli//3.3/stimNo128r0c0v3.3.jpg	 r	 1.811	 GoodTrial	 3.3	 bl
20	 6	 0	 x	 LineStimuli//3.3/stimNo147r0c0v3.3.jpg	 r	 1.659	 GoodTrial	 3.3	 bl
21	 6	 1	 right	 LineStimuli//3.3/stimNo102r13c13v3.3.jpg	 l	 1.736	 GoodTrial	 3.3	 bl
22	 6	 0	 x	 LineStimuli//3.3/stimNo141r0c0v3.3.jpg	 r	 1.872	 GoodTrial	 3.3	 bl
23	 6	 0	 x	 LineStimuli//3.3/stimNo157r0c0v3.3.jpg	 r	 1.669	 GoodTrial	 3.3	 bl
24	 6	 0	 x	 LineStimuli//3.3/stimNo150r0c0v3.3.jpg	 r	 1.566	 GoodTrial	 3.3	 bl
25	 6	 1	 left	 LineStimuli//3.3/stimNo90r2c9v3.3.jpg	 l	 1.811	 GoodTrial	 3.3	 bl
26	 6	 1	 left	 LineStimuli//3.3/stimNo94r14c9v3.3.jpg	 l	 1.716	 GoodTrial	 3.3	 bl
27	 6	 1	 right	 LineStimuli//3.3/stimNo82r11c20v3.3.jpg	 l	 1.608	 GoodTrial	 3.3	 bl
28	 6	 0	 x	 LineStimuli//3.3/stimNo129r0c0v3.3.jpg	 r	 1.787	 GoodTrial	 3.3	 bl
29	 6	 0	 x	 LineStimuli//3.3/stimNo158r0c0v3.3.jpg	 r	 1.763	 GoodTrial	 3.3	 bl
30	 6	 0	 x	 LineStimuli//3.3/stimNo123r0c0v3.3.jpg	 r	 1.669	 GoodTrial	 3.3	 bl
31	 6	 0	 x	 LineStimuli//3.3/stimNo122r0c0v3.3.jpg	 r	 1.772	 GoodTrial	 3.3	 bl
32	 6	 0	 x	 LineStimuli//3.3/stimNo127r0c0v3.3.jpg	 r	 1.896	 GoodTrial	 3.3	 bl
33	 6	 1	 left	 LineStimuli//3.3/stimNo106r9c9v3.3.jpg	 l	 1.777	 GoodTrial	 3.3	 bl
34	 6	 1	 right	 LineStimuli//3.3/stimNo112r5c15v3.3.jpg	 l	 1.513	 GoodTrial	 3.3	 bl
35	 6	 0	 x	 LineStimuli//3.3/stimNo149r0c0v3.3.jpg	 r	 1.805	 GoodTrial	 3.3	 bl
36	 6	 1	 left	 LineStimuli//3.3/stimNo104r4c4v3.3.jpg	 l	 1.559	 GoodTrial	 3.3	 bl
37	 6	 1	 right	 LineStimuli//3.3/stimNo118r3c16v3.3.jpg	 l	 1.593	 GoodTrial	 3.3	 bl
38	 6	 0	 x	 LineStimuli//3.3/stimNo144r0c0v3.3.jpg	 r	 1.881	 GoodTrial	 3.3	 bl
39	 6	 1	 left	 LineStimuli//3.3/stimNo110r4c3v3.3.jpg	 l	 1.573	 GoodTrial	 3.3	 bl
40	 6	 1	 right	 LineStimuli//3.3/stimNo89r5c21v3.3.jpg	 l	 1.591	 GoodTrial	 3.3	 bl
41	 6	 1	 left	 LineStimuli//3.3/stimNo108r13c2v3.3.jpg	 l	 1.746	 GoodTrial	 3.3	 bl
42	 6	 0	 x	 LineStimuli//3.3/stimNo154r0c0v3.3.jpg	 r	 1.748	 GoodTrial	 3.3	 bl
43	 6	 1	 left	 LineStimuli//3.3/stimNo103r6c6v3.3.jpg	 l	 1.620	 GoodTrial	 3.3	 bl
44	 6	 0	 x	 LineStimuli//3.3/stimNo137r0c0v3.3.jpg	 r	 1.641	 GoodTrial	 3.3	 bl
45	 6	 1	 right	 LineStimuli//3.3/stimNo101r7c16v3.3.jpg	 l	 1.573	 GoodTrial	 3.3	 bl
46	 6	 1	 left	 LineStimuli//3.3/stimNo92r10c7v3.3.jpg	 l	 1.492	 GoodTrial	 3.3	 bl
47	 6	 1	 right	 LineStimuli//3.3/stimNo97r6c13v3.3.jpg	 l	 1.600	 GoodTrial	 3.3	 bl
48	 6	 0	 x	 LineStimuli//3.3/stimNo156r0c0v3.3.jpg	 r	 1.761	 GoodTrial	 3.3	 bl
49	 6	 0	 x	 LineStimuli//3.3/stimNo125r0c0v3.3.jpg	 r	 2.349	 GoodTrial	 3.3	 bl
50	 6	 1	 left	 LineStimuli//3.3/stimNo115r3c4v3.3.jpg	 l	 1.475	 GoodTrial	 3.3	 bl
1	 7	 1	 right	 LineStimuli//1.8/stimNo100r9c13v1.8.jpg	 l	 2.464	 GoodTrial	 1.8	 bl
2	 7	 1	 left	 LineStimuli//1.8/stimNo110r4c7v1.8.jpg	 l	 2.057	 GoodTrial	 1.8	 bl
3	 7	 0	 x	 LineStimuli//1.8/stimNo132r0c0v1.8.jpg	 r	 1.971	 GoodTrial	 1.8	 bl
4	 7	 0	 x	 LineStimuli//1.8/stimNo152r0c0v1.8.jpg	 r	 2.217	 GoodTrial	 1.8	 bl
5	 7	 1	 left	 LineStimuli//1.8/stimNo81r6c8v1.8.jpg	 r	 1.961	 GoodTrial	 1.8	 bl
6	 7	 1	 left	 LineStimuli//1.8/stimNo107r5c4v1.8.jpg	 l	 2.060	 GoodTrial	 1.8	 bl
7	 7	 0	 x	 LineStimuli//1.8/stimNo127r0c0v1.8.jpg	 l	 2.091	 GoodTrial	 1.8	 bl
8	 7	 1	 left	 LineStimuli//1.8/stimNo115r5c9v1.8.jpg	 l	 1.767	 GoodTrial	 1.8	 bl
9	 7	 1	 right	 LineStimuli//1.8/stimNo99r12c16v1.8.jpg	 l	 1.990	 GoodTrial	 1.8	 bl
10	 7	 0	 x	 LineStimuli//1.8/stimNo131r0c0v1.8.jpg	 r	 2.523	 GoodTrial	 1.8	 bl
11	 7	 1	 right	 LineStimuli//1.8/stimNo111r4c21v1.8.jpg	 r	 3.082	 GoodTrial	 1.8	 bl
12	 7	 0	 x	 LineStimuli//1.8/stimNo155r0c0v1.8.jpg	 r	 4.263	 GoodTrial	 1.8	 bl
13	 7	 1	 left	 LineStimuli//1.8/stimNo98r15c5v1.8.jpg	 l	 2.946	 GoodTrial	 1.8	 bl
14	 7	 1	 left	 LineStimuli//1.8/stimNo106r13c9v1.8.jpg	 l	 2.967	 GoodTrial	 1.8	 bl
15	 7	 0	 x	 LineStimuli//1.8/stimNo147r0c0v1.8.jpg	 r	 2.921	 GoodTrial	 1.8	 bl
16	 7	 1	 left	 LineStimuli//1.8/stimNo85r13c2v1.8.jpg	 r	 2.283	 GoodTrial	 1.8	 bl
17	 7	 0	 x	 LineStimuli//1.8/stimNo121r0c0v1.8.jpg	 r	 2.419	 GoodTrial	 1.8	 bl
18	 7	 1	 right	 LineStimuli//1.8/stimNo101r4c13v1.8.jpg	 l	 2.551	 GoodTrial	 1.8	 bl
19	 7	 1	 right	 LineStimuli//1.8/stimNo84r11c21v1.8.jpg	 r	 3.072	 GoodTrial	 1.8	 bl
20	 7	 0	 x	 LineStimuli//1.8/stimNo139r0c0v1.8.jpg	 r	 2.885	 GoodTrial	 1.8	 bl
21	 7	 0	 x	 LineStimuli//1.8/stimNo151r0c0v1.8.jpg	 r	 2.727	 GoodTrial	 1.8	 bl
22	 7	 1	 right	 LineStimuli//1.8/stimNo117r10c16v1.8.jpg	 l	 2.921	 GoodTrial	 1.8	 bl
23	 7	 0	 x	 LineStimuli//1.8/stimNo159r0c0v1.8.jpg	 r	 3.165	 GoodTrial	 1.8	 bl
24	 7	 1	 left	 LineStimuli//1.8/stimNo87r14c2v1.8.jpg	 r	 4.010	 GoodTrial	 1.8	 bl
25	 7	 0	 x	 LineStimuli//1.8/stimNo160r0c0v1.8.jpg	 r	 3.167	 GoodTrial	 1.8	 bl
26	 7	 1	 left	 LineStimuli//1.8/stimNo89r11c6v1.8.jpg	 l	 2.502	 GoodTrial	 1.8	 bl
27	 7	 0	 x	 LineStimuli//1.8/stimNo146r0c0v1.8.jpg	 r	 3.851	 GoodTrial	 1.8	 bl
28	 7	 1	 left	 LineStimuli//1.8/stimNo91r14c4v1.8.jpg	 l	 2.495	 GoodTrial	 1.8	 bl
29	 7	 1	 left	 LineStimuli//1.8/stimNo96r13c2v1.8.jpg	 l	 1.790	 GoodTrial	 1.8	 bl
30	 7	 0	 x	 LineStimuli//1.8/stimNo128r0c0v1.8.jpg	 r	 2.934	 GoodTrial	 1.8	 bl
31	 7	 1	 right	 LineStimuli//1.8/stimNo104r3c21v1.8.jpg	 r	 2.880	 GoodTrial	 1.8	 bl
32	 7	 1	 right	 LineStimuli//1.8/stimNo119r3c21v1.8.jpg	 l	 3.808	 GoodTrial	 1.8	 bl
33	 7	 0	 x	 LineStimuli//1.8/stimNo158r0c0v1.8.jpg	 r	 2.689	 GoodTrial	 1.8	 bl
34	 7	 0	 x	 LineStimuli//1.8/stimNo156r0c0v1.8.jpg	 r	 3.664	 GoodTrial	 1.8	 bl
35	 7	 1	 right	 LineStimuli//1.8/stimNo109r7c17v1.8.jpg	 l	 1.837	 GoodTrial	 1.8	 bl
36	 7	 1	 left	 LineStimuli//1.8/stimNo86r14c4v1.8.jpg	 l	 1.936	 GoodTrial	 1.8	 bl
37	 7	 0	 x	 LineStimuli//1.8/stimNo150r0c0v1.8.jpg	 r	 3.042	 GoodTrial	 1.8	 bl
38	 7	 1	 left	 LineStimuli//1.8/stimNo95r4c9v1.8.jpg	 r	 3.412	 GoodTrial	 1.8	 bl
39	 7	 0	 x	 LineStimuli//1.8/stimNo123r0c0v1.8.jpg	 r	 3.370	 GoodTrial	 1.8	 bl
40	 7	 1	 left	 LineStimuli//1.8/stimNo94r13c8v1.8.jpg	 r	 2.891	 GoodTrial	 1.8	 bl
41	 7	 1	 right	 LineStimuli//1.8/stimNo118r11c15v1.8.jpg	 l	 1.773	 GoodTrial	 1.8	 bl
42	 7	 0	 x	 LineStimuli//1.8/stimNo148r0c0v1.8.jpg	 r	 2.853	 GoodTrial	 1.8	 bl
43	 7	 1	 left	 LineStimuli//1.8/stimNo113r6c7v1.8.jpg	 l	 2.283	 GoodTrial	 1.8	 bl
44	 7	 1	 right	 LineStimuli//1.8/stimNo93r3c17v1.8.jpg	 l	 2.365	 GoodTrial	 1.8	 bl
45	 7	 0	 x	 LineStimuli//1.8/stimNo133r0c0v1.8.jpg	 r	 2.867	 GoodTrial	 1.8	 bl
46	 7	 0	 x	 LineStimuli//1.8/stimNo142r0c0v1.8.jpg	 r	 2.229	 GoodTrial	 1.8	 bl
47	 7	 0	 x	 LineStimuli//1.8/stimNo136r0c0v1.8.jpg	 r	 2.794	 GoodTrial	 1.8	 bl
48	 7	 0	 x	 LineStimuli//1.8/stimNo135r0c0v1.8.jpg	 r	 2.533	 GoodTrial	 1.8	 bl
49	 7	 1	 left	 LineStimuli//1.8/stimNo88r15c9v1.8.jpg	 l	 2.871	 GoodTrial	 1.8	 bl
50	 7	 1	 right	 LineStimuli//1.8/stimNo92r10c18v1.8.jpg	 l	 2.161	 GoodTrial	 1.8	 bl
