Trial	Block	Target_pr	Target_side	Name	Key	RT	Message	Block_Type	Condition
1	 1	 0	 x	 LineStimuli//4.3/stimNo152r0c0v4.3.jpg	 r	 28.190	 GoodTrial	 4.3	 bl
2	 1	 0	 x	 LineStimuli//4.3/stimNo130r0c0v4.3.jpg	 r	 22.785	 GoodTrial	 4.3	 bl
3	 1	 0	 x	 LineStimuli//4.3/stimNo135r0c0v4.3.jpg	 r	 36.219	 GoodTrial	 4.3	 bl
4	 1	 0	 x	 LineStimuli//4.3/stimNo145r0c0v4.3.jpg	 r	 41.862	 GoodTrial	 4.3	 bl
5	 1	 0	 x	 LineStimuli//4.3/stimNo157r0c0v4.3.jpg	 r	 38.208	 GoodTrial	 4.3	 bl
6	 1	 1	 left	 LineStimuli//4.3/stimNo93r9c9v4.3.jpg	 l	 8.626	 GoodTrial	 4.3	 bl
7	 1	 1	 right	 LineStimuli//4.3/stimNo114r10c15v4.3.jpg	 l	 3.436	 GoodTrial	 4.3	 bl
8	 1	 0	 x	 LineStimuli//4.3/stimNo155r0c0v4.3.jpg	 r	 7.673	 GoodTrial	 4.3	 bl
9	 1	 0	 x	 LineStimuli//4.3/stimNo124r0c0v4.3.jpg	 r	 14.395	 GoodTrial	 4.3	 bl
10	 1	 1	 left	 LineStimuli//4.3/stimNo111r10c9v4.3.jpg	 l	 3.768	 GoodTrial	 4.3	 bl
11	 1	 1	 right	 LineStimuli//4.3/stimNo102r10c19v4.3.jpg	 l	 1.937	 GoodTrial	 4.3	 bl
12	 1	 1	 left	 LineStimuli//4.3/stimNo100r8c3v4.3.jpg	 l	 2.035	 GoodTrial	 4.3	 bl
13	 1	 1	 left	 LineStimuli//4.3/stimNo86r7c3v4.3.jpg	 l	 1.875	 GoodTrial	 4.3	 bl
14	 1	 0	 x	 LineStimuli//4.3/stimNo134r0c0v4.3.jpg	 r	 5.901	 GoodTrial	 4.3	 bl
15	 1	 1	 left	 LineStimuli//4.3/stimNo95r11c9v4.3.jpg	 l	 2.039	 GoodTrial	 4.3	 bl
16	 1	 0	 x	 LineStimuli//4.3/stimNo147r0c0v4.3.jpg	 r	 5.688	 GoodTrial	 4.3	 bl
17	 1	 0	 x	 LineStimuli//4.3/stimNo128r0c0v4.3.jpg	 r	 5.698	 GoodTrial	 4.3	 bl
18	 1	 1	 left	 LineStimuli//4.3/stimNo101r5c5v4.3.jpg	 l	 1.984	 GoodTrial	 4.3	 bl
19	 1	 1	 left	 LineStimuli//4.3/stimNo110r6c7v4.3.jpg	 l	 1.656	 GoodTrial	 4.3	 bl
20	 1	 1	 left	 LineStimuli//4.3/stimNo105r14c6v4.3.jpg	 l	 2.813	 GoodTrial	 4.3	 bl
21	 1	 1	 right	 LineStimuli//4.3/stimNo116r5c13v4.3.jpg	 l	 1.842	 GoodTrial	 4.3	 bl
22	 1	 1	 right	 LineStimuli//4.3/stimNo99r14c18v4.3.jpg	 l	 2.471	 GoodTrial	 4.3	 bl
23	 1	 1	 left	 LineStimuli//4.3/stimNo90r10c4v4.3.jpg	 l	 2.094	 GoodTrial	 4.3	 bl
24	 1	 0	 x	 LineStimuli//4.3/stimNo148r0c0v4.3.jpg	 r	 5.728	 GoodTrial	 4.3	 bl
25	 1	 0	 x	 LineStimuli//4.3/stimNo137r0c0v4.3.jpg	 r	 6.809	 GoodTrial	 4.3	 bl
26	 1	 1	 left	 LineStimuli//4.3/stimNo106r8c2v4.3.jpg	 l	 1.896	 GoodTrial	 4.3	 bl
27	 1	 1	 left	 LineStimuli//4.3/stimNo107r2c8v4.3.jpg	 l	 1.818	 GoodTrial	 4.3	 bl
28	 1	 0	 x	 LineStimuli//4.3/stimNo142r0c0v4.3.jpg	 r	 3.512	 GoodTrial	 4.3	 bl
29	 1	 0	 x	 LineStimuli//4.3/stimNo143r0c0v4.3.jpg	 r	 3.137	 GoodTrial	 4.3	 bl
30	 1	 1	 left	 LineStimuli//4.3/stimNo87r3c5v4.3.jpg	 l	 1.867	 GoodTrial	 4.3	 bl
31	 1	 0	 x	 LineStimuli//4.3/stimNo127r0c0v4.3.jpg	 r	 2.020	 GoodTrial	 4.3	 bl
32	 1	 0	 x	 LineStimuli//4.3/stimNo159r0c0v4.3.jpg	 r	 2.454	 GoodTrial	 4.3	 bl
33	 1	 0	 x	 LineStimuli//4.3/stimNo146r0c0v4.3.jpg	 r	 2.326	 GoodTrial	 4.3	 bl
34	 1	 0	 x	 LineStimuli//4.3/stimNo121r0c0v4.3.jpg	 r	 3.251	 GoodTrial	 4.3	 bl
35	 1	 0	 x	 LineStimuli//4.3/stimNo156r0c0v4.3.jpg	 r	 3.782	 GoodTrial	 4.3	 bl
36	 1	 0	 x	 LineStimuli//4.3/stimNo141r0c0v4.3.jpg	 r	 3.963	 GoodTrial	 4.3	 bl
37	 1	 0	 x	 LineStimuli//4.3/stimNo151r0c0v4.3.jpg	 r	 4.882	 GoodTrial	 4.3	 bl
38	 1	 1	 right	 LineStimuli//4.3/stimNo119r12c17v4.3.jpg	 l	 1.868	 GoodTrial	 4.3	 bl
39	 1	 0	 x	 LineStimuli//4.3/stimNo158r0c0v4.3.jpg	 r	 2.757	 GoodTrial	 4.3	 bl
40	 1	 0	 x	 LineStimuli//4.3/stimNo136r0c0v4.3.jpg	 l	 2.149	 GoodTrial	 4.3	 bl
41	 1	 1	 right	 LineStimuli//4.3/stimNo94r12c13v4.3.jpg	 l	 1.817	 GoodTrial	 4.3	 bl
42	 1	 1	 left	 LineStimuli//4.3/stimNo104r15c2v4.3.jpg	 r	 2.063	 GoodTrial	 4.3	 bl
43	 1	 0	 x	 LineStimuli//4.3/stimNo160r0c0v4.3.jpg	 r	 2.423	 GoodTrial	 4.3	 bl
44	 1	 0	 x	 LineStimuli//4.3/stimNo125r0c0v4.3.jpg	 r	 2.402	 GoodTrial	 4.3	 bl
45	 1	 0	 x	 LineStimuli//4.3/stimNo138r0c0v4.3.jpg	 r	 3.507	 GoodTrial	 4.3	 bl
46	 1	 1	 right	 LineStimuli//4.3/stimNo118r11c13v4.3.jpg	 l	 2.223	 GoodTrial	 4.3	 bl
47	 1	 1	 right	 LineStimuli//4.3/stimNo84r15c20v4.3.jpg	 l	 2.278	 GoodTrial	 4.3	 bl
48	 1	 0	 x	 LineStimuli//4.3/stimNo126r0c0v4.3.jpg	 r	 6.389	 GoodTrial	 4.3	 bl
49	 1	 1	 right	 LineStimuli//4.3/stimNo91r9c13v4.3.jpg	 x	 0.009	 EARLY_RESPONSE	 4.3	 bl
50	 1	 1	 right	 LineStimuli//4.3/stimNo97r6c21v4.3.jpg	 l	 1.975	 GoodTrial	 4.3	 bl
1	 2	 0	 x	 LineStimuli//1.8/stimNo159r0c0v1.8.jpg	 r	 9.545	 GoodTrial	 1.8	 bl
2	 2	 0	 x	 LineStimuli//1.8/stimNo160r0c0v1.8.jpg	 r	 11.644	 GoodTrial	 1.8	 bl
3	 2	 1	 right	 LineStimuli//1.8/stimNo109r7c17v1.8.jpg	 l	 2.408	 GoodTrial	 1.8	 bl
4	 2	 1	 left	 LineStimuli//1.8/stimNo103r15c10v1.8.jpg	 l	 2.993	 GoodTrial	 1.8	 bl
5	 2	 0	 x	 LineStimuli//1.8/stimNo143r0c0v1.8.jpg	 r	 7.272	 GoodTrial	 1.8	 bl
6	 2	 0	 x	 LineStimuli//1.8/stimNo140r0c0v1.8.jpg	 r	 12.765	 GoodTrial	 1.8	 bl
7	 2	 1	 left	 LineStimuli//1.8/stimNo115r5c9v1.8.jpg	 l	 1.905	 GoodTrial	 1.8	 bl
8	 2	 1	 right	 LineStimuli//1.8/stimNo119r3c21v1.8.jpg	 l	 2.393	 GoodTrial	 1.8	 bl
9	 2	 0	 x	 LineStimuli//1.8/stimNo141r0c0v1.8.jpg	 r	 7.399	 GoodTrial	 1.8	 bl
10	 2	 1	 right	 LineStimuli//1.8/stimNo117r10c16v1.8.jpg	 l	 3.282	 GoodTrial	 1.8	 bl
11	 2	 0	 x	 LineStimuli//1.8/stimNo139r0c0v1.8.jpg	 r	 5.391	 GoodTrial	 1.8	 bl
12	 2	 1	 left	 LineStimuli//1.8/stimNo106r13c9v1.8.jpg	 l	 5.648	 GoodTrial	 1.8	 bl
13	 2	 0	 x	 LineStimuli//1.8/stimNo148r0c0v1.8.jpg	 r	 8.901	 GoodTrial	 1.8	 bl
14	 2	 1	 left	 LineStimuli//1.8/stimNo110r4c7v1.8.jpg	 l	 1.996	 GoodTrial	 1.8	 bl
15	 2	 0	 x	 LineStimuli//1.8/stimNo133r0c0v1.8.jpg	 r	 5.701	 GoodTrial	 1.8	 bl
16	 2	 0	 x	 LineStimuli//1.8/stimNo150r0c0v1.8.jpg	 r	 4.359	 GoodTrial	 1.8	 bl
17	 2	 1	 left	 LineStimuli//1.8/stimNo87r14c2v1.8.jpg	 l	 3.731	 GoodTrial	 1.8	 bl
18	 2	 1	 right	 LineStimuli//1.8/stimNo102r14c17v1.8.jpg	 l	 1.953	 GoodTrial	 1.8	 bl
19	 2	 0	 x	 LineStimuli//1.8/stimNo123r0c0v1.8.jpg	 r	 6.563	 GoodTrial	 1.8	 bl
20	 2	 1	 right	 LineStimuli//1.8/stimNo108r9c21v1.8.jpg	 l	 5.554	 GoodTrial	 1.8	 bl
21	 2	 0	 x	 LineStimuli//1.8/stimNo146r0c0v1.8.jpg	 r	 12.319	 GoodTrial	 1.8	 bl
22	 2	 1	 left	 LineStimuli//1.8/stimNo120r14c9v1.8.jpg	 l	 4.151	 GoodTrial	 1.8	 bl
23	 2	 1	 right	 LineStimuli//1.8/stimNo93r3c17v1.8.jpg	 l	 3.409	 GoodTrial	 1.8	 bl
24	 2	 1	 right	 LineStimuli//1.8/stimNo100r9c13v1.8.jpg	 l	 3.089	 GoodTrial	 1.8	 bl
25	 2	 1	 left	 LineStimuli//1.8/stimNo105r6c5v1.8.jpg	 l	 3.247	 GoodTrial	 1.8	 bl
26	 2	 0	 x	 LineStimuli//1.8/stimNo138r0c0v1.8.jpg	 r	 11.441	 GoodTrial	 1.8	 bl
27	 2	 1	 left	 LineStimuli//1.8/stimNo91r14c4v1.8.jpg	 l	 3.558	 GoodTrial	 1.8	 bl
28	 2	 0	 x	 LineStimuli//1.8/stimNo151r0c0v1.8.jpg	 r	 11.711	 GoodTrial	 1.8	 bl
29	 2	 0	 x	 LineStimuli//1.8/stimNo155r0c0v1.8.jpg	 r	 11.830	 GoodTrial	 1.8	 bl
30	 2	 0	 x	 LineStimuli//1.8/stimNo158r0c0v1.8.jpg	 r	 7.559	 GoodTrial	 1.8	 bl
31	 2	 1	 left	 LineStimuli//1.8/stimNo85r13c2v1.8.jpg	 l	 3.541	 GoodTrial	 1.8	 bl
32	 2	 1	 right	 LineStimuli//1.8/stimNo97r15c18v1.8.jpg	 l	 2.225	 GoodTrial	 1.8	 bl
33	 2	 1	 right	 LineStimuli//1.8/stimNo82r7c18v1.8.jpg	 l	 2.247	 GoodTrial	 1.8	 bl
34	 2	 0	 x	 LineStimuli//1.8/stimNo121r0c0v1.8.jpg	 r	 6.075	 GoodTrial	 1.8	 bl
35	 2	 1	 left	 LineStimuli//1.8/stimNo98r15c5v1.8.jpg	 l	 2.616	 GoodTrial	 1.8	 bl
36	 2	 1	 left	 LineStimuli//1.8/stimNo81r6c8v1.8.jpg	 l	 5.086	 GoodTrial	 1.8	 bl
37	 2	 0	 x	 LineStimuli//1.8/stimNo134r0c0v1.8.jpg	 r	 8.286	 GoodTrial	 1.8	 bl
38	 2	 0	 x	 LineStimuli//1.8/stimNo152r0c0v1.8.jpg	 r	 7.392	 GoodTrial	 1.8	 bl
39	 2	 1	 right	 LineStimuli//1.8/stimNo104r3c21v1.8.jpg	 l	 1.981	 GoodTrial	 1.8	 bl
40	 2	 1	 right	 LineStimuli//1.8/stimNo90r15c13v1.8.jpg	 l	 2.894	 GoodTrial	 1.8	 bl
41	 2	 1	 left	 LineStimuli//1.8/stimNo89r11c6v1.8.jpg	 r	 8.054	 GoodTrial	 1.8	 bl
42	 2	 0	 x	 LineStimuli//1.8/stimNo126r0c0v1.8.jpg	 r	 11.198	 GoodTrial	 1.8	 bl
43	 2	 1	 right	 LineStimuli//1.8/stimNo92r10c18v1.8.jpg	 l	 2.187	 GoodTrial	 1.8	 bl
44	 2	 0	 x	 LineStimuli//1.8/stimNo136r0c0v1.8.jpg	 r	 10.618	 GoodTrial	 1.8	 bl
45	 2	 1	 right	 LineStimuli//1.8/stimNo111r4c21v1.8.jpg	 l	 1.877	 GoodTrial	 1.8	 bl
46	 2	 0	 x	 LineStimuli//1.8/stimNo137r0c0v1.8.jpg	 r	 8.019	 GoodTrial	 1.8	 bl
47	 2	 0	 x	 LineStimuli//1.8/stimNo157r0c0v1.8.jpg	 r	 8.574	 GoodTrial	 1.8	 bl
48	 2	 0	 x	 LineStimuli//1.8/stimNo156r0c0v1.8.jpg	 r	 11.312	 GoodTrial	 1.8	 bl
49	 2	 0	 x	 LineStimuli//1.8/stimNo154r0c0v1.8.jpg	 r	 11.266	 GoodTrial	 1.8	 bl
50	 2	 1	 left	 LineStimuli//1.8/stimNo116r4c7v1.8.jpg	 l	 2.135	 GoodTrial	 1.8	 bl
1	 3	 1	 right	 LineStimuli//2.3/stimNo99r2c13v2.3.jpg	 l	 3.552	 GoodTrial	 2.3	 bl
2	 3	 0	 x	 LineStimuli//2.3/stimNo122r0c0v2.3.jpg	 r	 5.482	 GoodTrial	 2.3	 bl
3	 3	 1	 left	 LineStimuli//2.3/stimNo88r15c2v2.3.jpg	 r	 3.940	 GoodTrial	 2.3	 bl
4	 3	 0	 x	 LineStimuli//2.3/stimNo153r0c0v2.3.jpg	 r	 7.438	 GoodTrial	 2.3	 bl
5	 3	 0	 x	 LineStimuli//2.3/stimNo157r0c0v2.3.jpg	 r	 9.251	 GoodTrial	 2.3	 bl
6	 3	 0	 x	 LineStimuli//2.3/stimNo141r0c0v2.3.jpg	 r	 7.771	 GoodTrial	 2.3	 bl
7	 3	 1	 left	 LineStimuli//2.3/stimNo119r3c2v2.3.jpg	 l	 2.186	 GoodTrial	 2.3	 bl
8	 3	 0	 x	 LineStimuli//2.3/stimNo129r0c0v2.3.jpg	 r	 4.281	 GoodTrial	 2.3	 bl
9	 3	 0	 x	 LineStimuli//2.3/stimNo124r0c0v2.3.jpg	 r	 6.134	 GoodTrial	 2.3	 bl
10	 3	 0	 x	 LineStimuli//2.3/stimNo126r0c0v2.3.jpg	 r	 5.538	 GoodTrial	 2.3	 bl
11	 3	 1	 right	 LineStimuli//2.3/stimNo118r4c17v2.3.jpg	 l	 2.100	 GoodTrial	 2.3	 bl
12	 3	 1	 right	 LineStimuli//2.3/stimNo102r6c18v2.3.jpg	 l	 1.773	 GoodTrial	 2.3	 bl
13	 3	 1	 left	 LineStimuli//2.3/stimNo96r3c3v2.3.jpg	 l	 2.050	 GoodTrial	 2.3	 bl
14	 3	 0	 x	 LineStimuli//2.3/stimNo159r0c0v2.3.jpg	 r	 4.932	 GoodTrial	 2.3	 bl
15	 3	 0	 x	 LineStimuli//2.3/stimNo144r0c0v2.3.jpg	 r	 8.649	 GoodTrial	 2.3	 bl
16	 3	 1	 right	 LineStimuli//2.3/stimNo85r4c15v2.3.jpg	 l	 1.764	 GoodTrial	 2.3	 bl
17	 3	 0	 x	 LineStimuli//2.3/stimNo136r0c0v2.3.jpg	 r	 4.716	 GoodTrial	 2.3	 bl
18	 3	 1	 left	 LineStimuli//2.3/stimNo86r8c9v2.3.jpg	 l	 2.258	 GoodTrial	 2.3	 bl
19	 3	 0	 x	 LineStimuli//2.3/stimNo156r0c0v2.3.jpg	 r	 5.622	 GoodTrial	 2.3	 bl
20	 3	 1	 left	 LineStimuli//2.3/stimNo116r2c2v2.3.jpg	 l	 1.731	 GoodTrial	 2.3	 bl
21	 3	 0	 x	 LineStimuli//2.3/stimNo125r0c0v2.3.jpg	 r	 5.251	 GoodTrial	 2.3	 bl
22	 3	 0	 x	 LineStimuli//2.3/stimNo143r0c0v2.3.jpg	 r	 3.152	 GoodTrial	 2.3	 bl
23	 3	 1	 left	 LineStimuli//2.3/stimNo82r12c4v2.3.jpg	 l	 2.141	 GoodTrial	 2.3	 bl
24	 3	 1	 right	 LineStimuli//2.3/stimNo111r11c21v2.3.jpg	 l	 2.065	 GoodTrial	 2.3	 bl
25	 3	 1	 left	 LineStimuli//2.3/stimNo112r3c2v2.3.jpg	 l	 1.837	 GoodTrial	 2.3	 bl
26	 3	 0	 x	 LineStimuli//2.3/stimNo150r0c0v2.3.jpg	 r	 2.484	 GoodTrial	 2.3	 bl
27	 3	 1	 left	 LineStimuli//2.3/stimNo83r14c4v2.3.jpg	 l	 1.806	 GoodTrial	 2.3	 bl
28	 3	 0	 x	 LineStimuli//2.3/stimNo146r0c0v2.3.jpg	 r	 2.859	 GoodTrial	 2.3	 bl
29	 3	 1	 left	 LineStimuli//2.3/stimNo117r11c8v2.3.jpg	 l	 2.536	 GoodTrial	 2.3	 bl
30	 3	 1	 left	 LineStimuli//2.3/stimNo81r4c3v2.3.jpg	 l	 1.787	 GoodTrial	 2.3	 bl
31	 3	 1	 left	 LineStimuli//2.3/stimNo108r15c6v2.3.jpg	 l	 1.907	 GoodTrial	 2.3	 bl
32	 3	 0	 x	 LineStimuli//2.3/stimNo151r0c0v2.3.jpg	 r	 5.282	 GoodTrial	 2.3	 bl
33	 3	 1	 right	 LineStimuli//2.3/stimNo120r4c17v2.3.jpg	 l	 2.097	 GoodTrial	 2.3	 bl
34	 3	 1	 right	 LineStimuli//2.3/stimNo89r8c21v2.3.jpg	 l	 3.287	 GoodTrial	 2.3	 bl
35	 3	 0	 x	 LineStimuli//2.3/stimNo134r0c0v2.3.jpg	 r	 3.742	 GoodTrial	 2.3	 bl
36	 3	 0	 x	 LineStimuli//2.3/stimNo123r0c0v2.3.jpg	 r	 7.105	 GoodTrial	 2.3	 bl
37	 3	 0	 x	 LineStimuli//2.3/stimNo121r0c0v2.3.jpg	 r	 5.739	 GoodTrial	 2.3	 bl
38	 3	 1	 left	 LineStimuli//2.3/stimNo104r2c4v2.3.jpg	 l	 2.000	 GoodTrial	 2.3	 bl
39	 3	 0	 x	 LineStimuli//2.3/stimNo145r0c0v2.3.jpg	 r	 4.938	 GoodTrial	 2.3	 bl
40	 3	 1	 left	 LineStimuli//2.3/stimNo95r13c9v2.3.jpg	 l	 2.146	 GoodTrial	 2.3	 bl
41	 3	 0	 x	 LineStimuli//2.3/stimNo130r0c0v2.3.jpg	 r	 3.662	 GoodTrial	 2.3	 bl
42	 3	 1	 left	 LineStimuli//2.3/stimNo114r7c8v2.3.jpg	 l	 2.568	 GoodTrial	 2.3	 bl
43	 3	 0	 x	 LineStimuli//2.3/stimNo139r0c0v2.3.jpg	 r	 4.168	 GoodTrial	 2.3	 bl
44	 3	 0	 x	 LineStimuli//2.3/stimNo127r0c0v2.3.jpg	 r	 3.181	 GoodTrial	 2.3	 bl
45	 3	 1	 right	 LineStimuli//2.3/stimNo93r4c16v2.3.jpg	 l	 1.689	 GoodTrial	 2.3	 bl
46	 3	 1	 right	 LineStimuli//2.3/stimNo107r11c15v2.3.jpg	 l	 2.276	 GoodTrial	 2.3	 bl
47	 3	 1	 right	 LineStimuli//2.3/stimNo110r15c19v2.3.jpg	 l	 1.811	 GoodTrial	 2.3	 bl
48	 3	 1	 right	 LineStimuli//2.3/stimNo101r8c14v2.3.jpg	 l	 1.704	 GoodTrial	 2.3	 bl
49	 3	 1	 right	 LineStimuli//2.3/stimNo105r14c14v2.3.jpg	 l	 2.005	 GoodTrial	 2.3	 bl
50	 3	 0	 x	 LineStimuli//2.3/stimNo128r0c0v2.3.jpg	 r	 6.868	 GoodTrial	 2.3	 bl
1	 4	 0	 x	 LineStimuli//2.8/stimNo151r0c0v2.8.jpg	 r	 3.573	 GoodTrial	 2.8	 bl
2	 4	 1	 right	 LineStimuli//2.8/stimNo120r8c20v2.8.jpg	 l	 1.736	 GoodTrial	 2.8	 bl
3	 4	 0	 x	 LineStimuli//2.8/stimNo159r0c0v2.8.jpg	 r	 2.785	 GoodTrial	 2.8	 bl
4	 4	 1	 left	 LineStimuli//2.8/stimNo105r5c4v2.8.jpg	 l	 1.815	 GoodTrial	 2.8	 bl
5	 4	 0	 x	 LineStimuli//2.8/stimNo148r0c0v2.8.jpg	 r	 3.483	 GoodTrial	 2.8	 bl
6	 4	 1	 left	 LineStimuli//2.8/stimNo87r11c8v2.8.jpg	 l	 1.826	 GoodTrial	 2.8	 bl
7	 4	 1	 right	 LineStimuli//2.8/stimNo111r9c15v2.8.jpg	 l	 1.633	 GoodTrial	 2.8	 bl
8	 4	 0	 x	 LineStimuli//2.8/stimNo145r0c0v2.8.jpg	 r	 3.671	 GoodTrial	 2.8	 bl
9	 4	 0	 x	 LineStimuli//2.8/stimNo153r0c0v2.8.jpg	 r	 2.886	 GoodTrial	 2.8	 bl
10	 4	 0	 x	 LineStimuli//2.8/stimNo157r0c0v2.8.jpg	 r	 3.402	 GoodTrial	 2.8	 bl
11	 4	 1	 right	 LineStimuli//2.8/stimNo114r8c19v2.8.jpg	 l	 1.763	 GoodTrial	 2.8	 bl
12	 4	 0	 x	 LineStimuli//2.8/stimNo126r0c0v2.8.jpg	 r	 4.265	 GoodTrial	 2.8	 bl
13	 4	 0	 x	 LineStimuli//2.8/stimNo131r0c0v2.8.jpg	 r	 3.074	 GoodTrial	 2.8	 bl
14	 4	 1	 left	 LineStimuli//2.8/stimNo82r4c6v2.8.jpg	 l	 1.868	 GoodTrial	 2.8	 bl
15	 4	 1	 right	 LineStimuli//2.8/stimNo99r9c18v2.8.jpg	 l	 1.687	 GoodTrial	 2.8	 bl
16	 4	 0	 x	 LineStimuli//2.8/stimNo138r0c0v2.8.jpg	 r	 4.012	 GoodTrial	 2.8	 bl
17	 4	 1	 right	 LineStimuli//2.8/stimNo95r9c18v2.8.jpg	 l	 1.663	 GoodTrial	 2.8	 bl
18	 4	 0	 x	 LineStimuli//2.8/stimNo150r0c0v2.8.jpg	 r	 2.842	 GoodTrial	 2.8	 bl
19	 4	 1	 right	 LineStimuli//2.8/stimNo92r14c21v2.8.jpg	 l	 1.720	 GoodTrial	 2.8	 bl
20	 4	 1	 left	 LineStimuli//2.8/stimNo94r13c7v2.8.jpg	 l	 2.127	 GoodTrial	 2.8	 bl
21	 4	 0	 x	 LineStimuli//2.8/stimNo144r0c0v2.8.jpg	 r	 4.101	 GoodTrial	 2.8	 bl
22	 4	 1	 right	 LineStimuli//2.8/stimNo110r7c14v2.8.jpg	 l	 1.662	 GoodTrial	 2.8	 bl
23	 4	 0	 x	 LineStimuli//2.8/stimNo154r0c0v2.8.jpg	 r	 3.235	 GoodTrial	 2.8	 bl
24	 4	 0	 x	 LineStimuli//2.8/stimNo141r0c0v2.8.jpg	 r	 2.654	 GoodTrial	 2.8	 bl
25	 4	 0	 x	 LineStimuli//2.8/stimNo142r0c0v2.8.jpg	 r	 2.659	 GoodTrial	 2.8	 bl
26	 4	 0	 x	 LineStimuli//2.8/stimNo137r0c0v2.8.jpg	 r	 3.873	 GoodTrial	 2.8	 bl
27	 4	 1	 right	 LineStimuli//2.8/stimNo109r6c18v2.8.jpg	 l	 1.657	 GoodTrial	 2.8	 bl
28	 4	 1	 left	 LineStimuli//2.8/stimNo83r12c4v2.8.jpg	 l	 2.234	 GoodTrial	 2.8	 bl
29	 4	 1	 left	 LineStimuli//2.8/stimNo113r9c5v2.8.jpg	 l	 2.021	 GoodTrial	 2.8	 bl
30	 4	 0	 x	 LineStimuli//2.8/stimNo160r0c0v2.8.jpg	 r	 3.661	 GoodTrial	 2.8	 bl
31	 4	 1	 right	 LineStimuli//2.8/stimNo117r11c17v2.8.jpg	 l	 1.794	 GoodTrial	 2.8	 bl
32	 4	 1	 right	 LineStimuli//2.8/stimNo93r9c20v2.8.jpg	 l	 2.179	 GoodTrial	 2.8	 bl
33	 4	 0	 x	 LineStimuli//2.8/stimNo132r0c0v2.8.jpg	 r	 4.774	 GoodTrial	 2.8	 bl
34	 4	 1	 left	 LineStimuli//2.8/stimNo89r12c4v2.8.jpg	 l	 1.828	 GoodTrial	 2.8	 bl
35	 4	 1	 left	 LineStimuli//2.8/stimNo84r3c9v2.8.jpg	 l	 1.867	 GoodTrial	 2.8	 bl
36	 4	 0	 x	 LineStimuli//2.8/stimNo128r0c0v2.8.jpg	 r	 3.264	 GoodTrial	 2.8	 bl
37	 4	 0	 x	 LineStimuli//2.8/stimNo146r0c0v2.8.jpg	 r	 1.924	 GoodTrial	 2.8	 bl
38	 4	 0	 x	 LineStimuli//2.8/stimNo155r0c0v2.8.jpg	 r	 2.368	 GoodTrial	 2.8	 bl
39	 4	 0	 x	 LineStimuli//2.8/stimNo133r0c0v2.8.jpg	 r	 3.187	 GoodTrial	 2.8	 bl
40	 4	 0	 x	 LineStimuli//2.8/stimNo135r0c0v2.8.jpg	 r	 2.831	 GoodTrial	 2.8	 bl
41	 4	 0	 x	 LineStimuli//2.8/stimNo124r0c0v2.8.jpg	 r	 2.564	 GoodTrial	 2.8	 bl
42	 4	 0	 x	 LineStimuli//2.8/stimNo152r0c0v2.8.jpg	 r	 1.964	 GoodTrial	 2.8	 bl
43	 4	 0	 x	 LineStimuli//2.8/stimNo140r0c0v2.8.jpg	 r	 4.083	 GoodTrial	 2.8	 bl
44	 4	 0	 x	 LineStimuli//2.8/stimNo129r0c0v2.8.jpg	 r	 3.567	 GoodTrial	 2.8	 bl
45	 4	 0	 x	 LineStimuli//2.8/stimNo136r0c0v2.8.jpg	 r	 2.953	 GoodTrial	 2.8	 bl
46	 4	 1	 right	 LineStimuli//2.8/stimNo106r13c20v2.8.jpg	 l	 4.206	 GoodTrial	 2.8	 bl
47	 4	 0	 x	 LineStimuli//2.8/stimNo147r0c0v2.8.jpg	 r	 3.571	 GoodTrial	 2.8	 bl
48	 4	 0	 x	 LineStimuli//2.8/stimNo127r0c0v2.8.jpg	 r	 6.159	 GoodTrial	 2.8	 bl
49	 4	 1	 left	 LineStimuli//2.8/stimNo96r6c9v2.8.jpg	 l	 2.160	 GoodTrial	 2.8	 bl
50	 4	 1	 left	 LineStimuli//2.8/stimNo88r15c3v2.8.jpg	 l	 3.425	 GoodTrial	 2.8	 bl
1	 5	 1	 left	 LineStimuli//3.8/stimNo115r14c10v3.8.jpg	 l	 1.894	 GoodTrial	 3.8	 bl
2	 5	 1	 left	 LineStimuli//3.8/stimNo89r10c7v3.8.jpg	 l	 2.130	 GoodTrial	 3.8	 bl
3	 5	 0	 x	 LineStimuli//3.8/stimNo140r0c0v3.8.jpg	 l	 2.871	 GoodTrial	 3.8	 bl
4	 5	 0	 x	 LineStimuli//3.8/stimNo148r0c0v3.8.jpg	 r	 5.464	 GoodTrial	 3.8	 bl
5	 5	 0	 x	 LineStimuli//3.8/stimNo144r0c0v3.8.jpg	 r	 3.380	 GoodTrial	 3.8	 bl
6	 5	 1	 right	 LineStimuli//3.8/stimNo88r10c17v3.8.jpg	 l	 1.742	 GoodTrial	 3.8	 bl
7	 5	 1	 left	 LineStimuli//3.8/stimNo104r12c8v3.8.jpg	 l	 2.661	 GoodTrial	 3.8	 bl
8	 5	 0	 x	 LineStimuli//3.8/stimNo139r0c0v3.8.jpg	 r	 4.400	 GoodTrial	 3.8	 bl
9	 5	 1	 right	 LineStimuli//3.8/stimNo114r10c14v3.8.jpg	 l	 1.727	 GoodTrial	 3.8	 bl
10	 5	 0	 x	 LineStimuli//3.8/stimNo142r0c0v3.8.jpg	 r	 5.568	 GoodTrial	 3.8	 bl
11	 5	 0	 x	 LineStimuli//3.8/stimNo160r0c0v3.8.jpg	 r	 2.891	 GoodTrial	 3.8	 bl
12	 5	 1	 left	 LineStimuli//3.8/stimNo93r8c2v3.8.jpg	 l	 2.019	 GoodTrial	 3.8	 bl
13	 5	 1	 left	 LineStimuli//3.8/stimNo106r9c9v3.8.jpg	 l	 1.738	 GoodTrial	 3.8	 bl
14	 5	 1	 right	 LineStimuli//3.8/stimNo81r3c21v3.8.jpg	 l	 1.862	 GoodTrial	 3.8	 bl
15	 5	 1	 right	 LineStimuli//3.8/stimNo94r6c17v3.8.jpg	 l	 1.667	 GoodTrial	 3.8	 bl
16	 5	 0	 x	 LineStimuli//3.8/stimNo146r0c0v3.8.jpg	 r	 2.792	 GoodTrial	 3.8	 bl
17	 5	 0	 x	 LineStimuli//3.8/stimNo137r0c0v3.8.jpg	 r	 3.536	 GoodTrial	 3.8	 bl
18	 5	 0	 x	 LineStimuli//3.8/stimNo130r0c0v3.8.jpg	 r	 6.864	 GoodTrial	 3.8	 bl
19	 5	 0	 x	 LineStimuli//3.8/stimNo157r0c0v3.8.jpg	 r	 2.807	 GoodTrial	 3.8	 bl
20	 5	 1	 right	 LineStimuli//3.8/stimNo102r10c17v3.8.jpg	 l	 1.741	 GoodTrial	 3.8	 bl
21	 5	 0	 x	 LineStimuli//3.8/stimNo149r0c0v3.8.jpg	 r	 2.784	 GoodTrial	 3.8	 bl
22	 5	 1	 left	 LineStimuli//3.8/stimNo110r7c9v3.8.jpg	 l	 1.643	 GoodTrial	 3.8	 bl
23	 5	 1	 left	 LineStimuli//3.8/stimNo116r7c3v3.8.jpg	 l	 1.844	 GoodTrial	 3.8	 bl
24	 5	 0	 x	 LineStimuli//3.8/stimNo121r0c0v3.8.jpg	 r	 4.010	 GoodTrial	 3.8	 bl
25	 5	 1	 right	 LineStimuli//3.8/stimNo85r3c13v3.8.jpg	 l	 2.008	 GoodTrial	 3.8	 bl
26	 5	 0	 x	 LineStimuli//3.8/stimNo138r0c0v3.8.jpg	 r	 4.072	 GoodTrial	 3.8	 bl
27	 5	 1	 left	 LineStimuli//3.8/stimNo109r11c8v3.8.jpg	 l	 1.730	 GoodTrial	 3.8	 bl
28	 5	 0	 x	 LineStimuli//3.8/stimNo151r0c0v3.8.jpg	 r	 3.557	 GoodTrial	 3.8	 bl
29	 5	 1	 left	 LineStimuli//3.8/stimNo100r13c6v3.8.jpg	 l	 1.899	 GoodTrial	 3.8	 bl
30	 5	 1	 right	 LineStimuli//3.8/stimNo91r10c16v3.8.jpg	 l	 1.758	 GoodTrial	 3.8	 bl
31	 5	 0	 x	 LineStimuli//3.8/stimNo158r0c0v3.8.jpg	 r	 2.849	 GoodTrial	 3.8	 bl
32	 5	 0	 x	 LineStimuli//3.8/stimNo136r0c0v3.8.jpg	 r	 2.704	 GoodTrial	 3.8	 bl
33	 5	 0	 x	 LineStimuli//3.8/stimNo141r0c0v3.8.jpg	 r	 5.703	 GoodTrial	 3.8	 bl
34	 5	 1	 right	 LineStimuli//3.8/stimNo101r12c17v3.8.jpg	 l	 1.945	 GoodTrial	 3.8	 bl
35	 5	 0	 x	 LineStimuli//3.8/stimNo156r0c0v3.8.jpg	 r	 3.911	 GoodTrial	 3.8	 bl
36	 5	 0	 x	 LineStimuli//3.8/stimNo125r0c0v3.8.jpg	 r	 3.035	 GoodTrial	 3.8	 bl
37	 5	 0	 x	 LineStimuli//3.8/stimNo159r0c0v3.8.jpg	 r	 2.760	 GoodTrial	 3.8	 bl
38	 5	 0	 x	 LineStimuli//3.8/stimNo147r0c0v3.8.jpg	 r	 3.088	 GoodTrial	 3.8	 bl
39	 5	 0	 x	 LineStimuli//3.8/stimNo145r0c0v3.8.jpg	 r	 3.197	 GoodTrial	 3.8	 bl
40	 5	 1	 left	 LineStimuli//3.8/stimNo98r2c9v3.8.jpg	 l	 2.532	 GoodTrial	 3.8	 bl
41	 5	 0	 x	 LineStimuli//3.8/stimNo150r0c0v3.8.jpg	 r	 3.438	 GoodTrial	 3.8	 bl
42	 5	 1	 right	 LineStimuli//3.8/stimNo112r12c16v3.8.jpg	 l	 1.970	 GoodTrial	 3.8	 bl
43	 5	 1	 right	 LineStimuli//3.8/stimNo96r2c13v3.8.jpg	 l	 2.543	 GoodTrial	 3.8	 bl
44	 5	 1	 left	 LineStimuli//3.8/stimNo119r9c8v3.8.jpg	 l	 1.784	 GoodTrial	 3.8	 bl
45	 5	 0	 x	 LineStimuli//3.8/stimNo143r0c0v3.8.jpg	 r	 3.429	 GoodTrial	 3.8	 bl
46	 5	 1	 right	 LineStimuli//3.8/stimNo84r9c19v3.8.jpg	 l	 1.676	 GoodTrial	 3.8	 bl
47	 5	 0	 x	 LineStimuli//3.8/stimNo124r0c0v3.8.jpg	 r	 2.512	 GoodTrial	 3.8	 bl
48	 5	 1	 left	 LineStimuli//3.8/stimNo83r9c9v3.8.jpg	 l	 1.650	 GoodTrial	 3.8	 bl
49	 5	 0	 x	 LineStimuli//3.8/stimNo123r0c0v3.8.jpg	 r	 2.687	 GoodTrial	 3.8	 bl
50	 5	 0	 x	 LineStimuli//3.8/stimNo152r0c0v3.8.jpg	 r	 1.908	 GoodTrial	 3.8	 bl
1	 6	 1	 left	 LineStimuli//3.3/stimNo92r10c7v3.3.jpg	 l	 1.935	 GoodTrial	 3.3	 bl
2	 6	 0	 x	 LineStimuli//3.3/stimNo121r0c0v3.3.jpg	 r	 2.496	 GoodTrial	 3.3	 bl
3	 6	 0	 x	 LineStimuli//3.3/stimNo158r0c0v3.3.jpg	 r	 2.658	 GoodTrial	 3.3	 bl
4	 6	 1	 left	 LineStimuli//3.3/stimNo119r15c7v3.3.jpg	 l	 1.878	 GoodTrial	 3.3	 bl
5	 6	 0	 x	 LineStimuli//3.3/stimNo149r0c0v3.3.jpg	 r	 2.022	 GoodTrial	 3.3	 bl
6	 6	 0	 x	 LineStimuli//3.3/stimNo139r0c0v3.3.jpg	 r	 2.036	 GoodTrial	 3.3	 bl
7	 6	 1	 right	 LineStimuli//3.3/stimNo120r8c14v3.3.jpg	 l	 1.678	 GoodTrial	 3.3	 bl
8	 6	 0	 x	 LineStimuli//3.3/stimNo138r0c0v3.3.jpg	 r	 2.640	 GoodTrial	 3.3	 bl
9	 6	 1	 right	 LineStimuli//3.3/stimNo102r13c13v3.3.jpg	 l	 1.837	 GoodTrial	 3.3	 bl
10	 6	 0	 x	 LineStimuli//3.3/stimNo128r0c0v3.3.jpg	 r	 2.365	 GoodTrial	 3.3	 bl
11	 6	 0	 x	 LineStimuli//3.3/stimNo148r0c0v3.3.jpg	 r	 2.087	 GoodTrial	 3.3	 bl
12	 6	 0	 x	 LineStimuli//3.3/stimNo150r0c0v3.3.jpg	 r	 2.207	 GoodTrial	 3.3	 bl
13	 6	 1	 left	 LineStimuli//3.3/stimNo108r13c2v3.3.jpg	 l	 1.993	 GoodTrial	 3.3	 bl
14	 6	 1	 right	 LineStimuli//3.3/stimNo112r5c15v3.3.jpg	 l	 1.713	 GoodTrial	 3.3	 bl
15	 6	 0	 x	 LineStimuli//3.3/stimNo133r0c0v3.3.jpg	 r	 2.383	 GoodTrial	 3.3	 bl
16	 6	 1	 right	 LineStimuli//3.3/stimNo96r8c18v3.3.jpg	 l	 1.716	 GoodTrial	 3.3	 bl
17	 6	 1	 right	 LineStimuli//3.3/stimNo87r15c13v3.3.jpg	 l	 2.025	 GoodTrial	 3.3	 bl
18	 6	 0	 x	 LineStimuli//3.3/stimNo136r0c0v3.3.jpg	 r	 2.797	 GoodTrial	 3.3	 bl
19	 6	 1	 left	 LineStimuli//3.3/stimNo93r3c5v3.3.jpg	 l	 1.654	 GoodTrial	 3.3	 bl
20	 6	 1	 left	 LineStimuli//3.3/stimNo86r5c7v3.3.jpg	 l	 1.714	 GoodTrial	 3.3	 bl
21	 6	 1	 left	 LineStimuli//3.3/stimNo109r15c7v3.3.jpg	 l	 2.085	 GoodTrial	 3.3	 bl
22	 6	 0	 x	 LineStimuli//3.3/stimNo159r0c0v3.3.jpg	 r	 3.696	 GoodTrial	 3.3	 bl
23	 6	 1	 right	 LineStimuli//3.3/stimNo101r7c16v3.3.jpg	 l	 1.554	 GoodTrial	 3.3	 bl
24	 6	 1	 left	 LineStimuli//3.3/stimNo110r4c3v3.3.jpg	 l	 1.816	 GoodTrial	 3.3	 bl
25	 6	 1	 right	 LineStimuli//3.3/stimNo88r9c14v3.3.jpg	 l	 1.675	 GoodTrial	 3.3	 bl
26	 6	 1	 right	 LineStimuli//3.3/stimNo114r11c21v3.3.jpg	 l	 1.670	 GoodTrial	 3.3	 bl
27	 6	 0	 x	 LineStimuli//3.3/stimNo137r0c0v3.3.jpg	 r	 2.572	 GoodTrial	 3.3	 bl
28	 6	 0	 x	 LineStimuli//3.3/stimNo140r0c0v3.3.jpg	 r	 2.850	 GoodTrial	 3.3	 bl
29	 6	 1	 right	 LineStimuli//3.3/stimNo84r6c16v3.3.jpg	 l	 1.632	 GoodTrial	 3.3	 bl
30	 6	 0	 x	 LineStimuli//3.3/stimNo134r0c0v3.3.jpg	 r	 2.249	 GoodTrial	 3.3	 bl
31	 6	 0	 x	 LineStimuli//3.3/stimNo126r0c0v3.3.jpg	 r	 2.260	 GoodTrial	 3.3	 bl
32	 6	 1	 left	 LineStimuli//3.3/stimNo111r15c7v3.3.jpg	 l	 3.179	 GoodTrial	 3.3	 bl
33	 6	 0	 x	 LineStimuli//3.3/stimNo154r0c0v3.3.jpg	 r	 2.431	 GoodTrial	 3.3	 bl
34	 6	 0	 x	 LineStimuli//3.3/stimNo127r0c0v3.3.jpg	 r	 2.389	 GoodTrial	 3.3	 bl
35	 6	 1	 left	 LineStimuli//3.3/stimNo95r15c8v3.3.jpg	 l	 1.985	 GoodTrial	 3.3	 bl
36	 6	 0	 x	 LineStimuli//3.3/stimNo157r0c0v3.3.jpg	 r	 2.619	 GoodTrial	 3.3	 bl
37	 6	 1	 right	 LineStimuli//3.3/stimNo82r11c20v3.3.jpg	 l	 1.629	 GoodTrial	 3.3	 bl
38	 6	 1	 right	 LineStimuli//3.3/stimNo118r3c16v3.3.jpg	 l	 1.709	 GoodTrial	 3.3	 bl
39	 6	 0	 x	 LineStimuli//3.3/stimNo141r0c0v3.3.jpg	 r	 2.517	 GoodTrial	 3.3	 bl
40	 6	 1	 right	 LineStimuli//3.3/stimNo98r4c21v3.3.jpg	 l	 1.710	 GoodTrial	 3.3	 bl
41	 6	 0	 x	 LineStimuli//3.3/stimNo122r0c0v3.3.jpg	 r	 3.528	 GoodTrial	 3.3	 bl
42	 6	 0	 x	 LineStimuli//3.3/stimNo131r0c0v3.3.jpg	 r	 3.328	 GoodTrial	 3.3	 bl
43	 6	 0	 x	 LineStimuli//3.3/stimNo132r0c0v3.3.jpg	 r	 3.874	 GoodTrial	 3.3	 bl
44	 6	 0	 x	 LineStimuli//3.3/stimNo146r0c0v3.3.jpg	 r	 3.112	 GoodTrial	 3.3	 bl
45	 6	 0	 x	 LineStimuli//3.3/stimNo130r0c0v3.3.jpg	 r	 2.923	 GoodTrial	 3.3	 bl
46	 6	 1	 left	 LineStimuli//3.3/stimNo90r2c9v3.3.jpg	 l	 2.499	 GoodTrial	 3.3	 bl
47	 6	 0	 x	 LineStimuli//3.3/stimNo144r0c0v3.3.jpg	 r	 3.510	 GoodTrial	 3.3	 bl
48	 6	 0	 x	 LineStimuli//3.3/stimNo124r0c0v3.3.jpg	 r	 2.484	 GoodTrial	 3.3	 bl
49	 6	 0	 x	 LineStimuli//3.3/stimNo152r0c0v3.3.jpg	 r	 2.391	 GoodTrial	 3.3	 bl
50	 6	 0	 x	 LineStimuli//3.3/stimNo147r0c0v3.3.jpg	 r	 2.159	 GoodTrial	 3.3	 bl
1	 7	 1	 right	 LineStimuli//1.5/stimNo95r6c14v1.5.jpg	 l	 3.615	 GoodTrial	 1.5	 bl
2	 7	 1	 left	 LineStimuli//1.5/stimNo96r15c4v1.5.jpg	 r	 5.789	 GoodTrial	 1.5	 bl
3	 7	 0	 x	 LineStimuli//1.5/stimNo134r0c0v1.5.jpg	 r	 18.966	 GoodTrial	 1.5	 bl
4	 7	 0	 x	 LineStimuli//1.5/stimNo140r0c0v1.5.jpg	 l	 25.063	 GoodTrial	 1.5	 bl
5	 7	 0	 x	 LineStimuli//1.5/stimNo143r0c0v1.5.jpg	 r	 44.675	 GoodTrial	 1.5	 bl
6	 7	 1	 left	 LineStimuli//1.5/stimNo85r2c5v1.5.jpg	 r	 35.297	 GoodTrial	 1.5	 bl
7	 7	 0	 x	 LineStimuli//1.5/stimNo147r0c0v1.5.jpg	 l	 36.469	 GoodTrial	 1.5	 bl
8	 7	 1	 left	 LineStimuli//1.5/stimNo83r12c7v1.5.jpg	 r	 36.945	 GoodTrial	 1.5	 bl
9	 7	 0	 x	 LineStimuli//1.5/stimNo123r0c0v1.5.jpg	 l	 13.195	 GoodTrial	 1.5	 bl
10	 7	 0	 x	 LineStimuli//1.5/stimNo148r0c0v1.5.jpg	 r	 53.387	 GoodTrial	 1.5	 bl
11	 7	 0	 x	 LineStimuli//1.5/stimNo152r0c0v1.5.jpg	 r	 50.496	 GoodTrial	 1.5	 bl
12	 7	 0	 x	 LineStimuli//1.5/stimNo129r0c0v1.5.jpg	 r	 53.584	 GoodTrial	 1.5	 bl
13	 7	 0	 x	 LineStimuli//1.5/stimNo133r0c0v1.5.jpg	 r	 23.951	 GoodTrial	 1.5	 bl
14	 7	 1	 right	 LineStimuli//1.5/stimNo92r6c18v1.5.jpg	 l	 21.367	 GoodTrial	 1.5	 bl
15	 7	 1	 right	 LineStimuli//1.5/stimNo103r13c17v1.5.jpg	 r	 6.733	 GoodTrial	 1.5	 bl
16	 7	 1	 right	 LineStimuli//1.5/stimNo105r3c18v1.5.jpg	 r	 24.014	 GoodTrial	 1.5	 bl
17	 7	 0	 x	 LineStimuli//1.5/stimNo154r0c0v1.5.jpg	 l	 32.106	 GoodTrial	 1.5	 bl
18	 7	 0	 x	 LineStimuli//1.5/stimNo127r0c0v1.5.jpg	 r	 15.575	 GoodTrial	 1.5	 bl
19	 7	 1	 left	 LineStimuli//1.5/stimNo99r10c3v1.5.jpg	 l	 2.152	 GoodTrial	 1.5	 bl
20	 7	 1	 left	 LineStimuli//1.5/stimNo109r8c6v1.5.jpg	 l	 5.566	 GoodTrial	 1.5	 bl
21	 7	 0	 x	 LineStimuli//1.5/stimNo130r0c0v1.5.jpg	 r	 7.687	 GoodTrial	 1.5	 bl
22	 7	 1	 right	 LineStimuli//1.5/stimNo111r7c17v1.5.jpg	 l	 1.858	 GoodTrial	 1.5	 bl
23	 7	 1	 left	 LineStimuli//1.5/stimNo106r3c7v1.5.jpg	 l	 4.858	 GoodTrial	 1.5	 bl
24	 7	 0	 x	 LineStimuli//1.5/stimNo149r0c0v1.5.jpg	 r	 6.276	 GoodTrial	 1.5	 bl
25	 7	 0	 x	 LineStimuli//1.5/stimNo156r0c0v1.5.jpg	 r	 5.774	 GoodTrial	 1.5	 bl
26	 7	 1	 right	 LineStimuli//1.5/stimNo84r3c18v1.5.jpg	 l	 1.814	 GoodTrial	 1.5	 bl
27	 7	 0	 x	 LineStimuli//1.5/stimNo132r0c0v1.5.jpg	 r	 4.802	 GoodTrial	 1.5	 bl
28	 7	 1	 left	 LineStimuli//1.5/stimNo91r9c3v1.5.jpg	 l	 2.072	 GoodTrial	 1.5	 bl
29	 7	 1	 left	 LineStimuli//1.5/stimNo120r14c2v1.5.jpg	 l	 2.848	 GoodTrial	 1.5	 bl
30	 7	 1	 right	 LineStimuli//1.5/stimNo100r6c20v1.5.jpg	 l	 2.272	 GoodTrial	 1.5	 bl
31	 7	 0	 x	 LineStimuli//1.5/stimNo157r0c0v1.5.jpg	 r	 4.553	 GoodTrial	 1.5	 bl
32	 7	 0	 x	 LineStimuli//1.5/stimNo128r0c0v1.5.jpg	 r	 5.989	 GoodTrial	 1.5	 bl
33	 7	 0	 x	 LineStimuli//1.5/stimNo144r0c0v1.5.jpg	 r	 10.105	 GoodTrial	 1.5	 bl
34	 7	 1	 right	 LineStimuli//1.5/stimNo81r6c17v1.5.jpg	 l	 1.890	 GoodTrial	 1.5	 bl
35	 7	 1	 left	 LineStimuli//1.5/stimNo113r4c4v1.5.jpg	 r	 4.595	 GoodTrial	 1.5	 bl
36	 7	 1	 right	 LineStimuli//1.5/stimNo101r5c20v1.5.jpg	 l	 1.831	 GoodTrial	 1.5	 bl
37	 7	 1	 right	 LineStimuli//1.5/stimNo108r13c15v1.5.jpg	 l	 2.185	 GoodTrial	 1.5	 bl
38	 7	 0	 x	 LineStimuli//1.5/stimNo158r0c0v1.5.jpg	 r	 7.861	 GoodTrial	 1.5	 bl
39	 7	 1	 left	 LineStimuli//1.5/stimNo110r7c3v1.5.jpg	 r	 10.518	 GoodTrial	 1.5	 bl
40	 7	 0	 x	 LineStimuli//1.5/stimNo142r0c0v1.5.jpg	 r	 8.532	 GoodTrial	 1.5	 bl
41	 7	 1	 right	 LineStimuli//1.5/stimNo119r6c19v1.5.jpg	 l	 1.857	 GoodTrial	 1.5	 bl
42	 7	 1	 left	 LineStimuli//1.5/stimNo112r9c5v1.5.jpg	 l	 3.920	 GoodTrial	 1.5	 bl
43	 7	 1	 right	 LineStimuli//1.5/stimNo115r14c18v1.5.jpg	 l	 2.372	 GoodTrial	 1.5	 bl
44	 7	 0	 x	 LineStimuli//1.5/stimNo139r0c0v1.5.jpg	 l	 3.495	 GoodTrial	 1.5	 bl
45	 7	 1	 left	 LineStimuli//1.5/stimNo117r7c8v1.5.jpg	 l	 2.038	 GoodTrial	 1.5	 bl
46	 7	 0	 x	 LineStimuli//1.5/stimNo121r0c0v1.5.jpg	 r	 10.152	 GoodTrial	 1.5	 bl
47	 7	 0	 x	 LineStimuli//1.5/stimNo138r0c0v1.5.jpg	 r	 8.346	 GoodTrial	 1.5	 bl
48	 7	 1	 right	 LineStimuli//1.5/stimNo86r6c16v1.5.jpg	 l	 1.891	 GoodTrial	 1.5	 bl
49	 7	 0	 x	 LineStimuli//1.5/stimNo126r0c0v1.5.jpg	 r	 5.353	 GoodTrial	 1.5	 bl
50	 7	 0	 x	 LineStimuli//1.5/stimNo141r0c0v1.5.jpg	 r	 6.892	 GoodTrial	 1.5	 bl
